seq,stamp,px,py,pz,ox,oy,oz,ow,lx,ly,lz,ax,ay,az,timestamp,lyap_z,wx,wy,wz,aa_x,aa_y,aa_z,roll,pitch,yaw,vx,vy,vz,jx,jy,jz,forward_velocity,forward_velocity_1,deviation
11020,1724820614706957207,0.425886332988739,0.0852191373705864,0.1062367111444473,0.0548831783235073,-0.0236847940832376,0.3841551542282104,-0.9213314652442932,0.0,0.0,0.0,-0.5205194318354589,-0.8444365989308489,-0.2480800276116019,0.0,0.1062367111444473,0.0,0.0,0.0,-12.336152867246627,-14.709338228164986,-37.14013789460954,-0.11961362266730909,0.0014757809423257434,-0.7901644821924524,0.0667421883170629,-9.434607618395549e-05,-0.008889496955434778,56.80110749154916,7.337981006924525,10.438935115570644,0.0,0.0,0.14029388134410797
11022,1724820614716196785,0.4265030026435852,0.0852182656526565,0.1061545759439468,0.0556469820439815,-0.0232215598225593,0.385568231344223,-0.9207069873809814,0.0,0.0,0.0,0.004298831319093921,-0.7766367510548512,-0.1516286723743479,0.009239578,0.1061545759439468,-0.11398084663684885,-0.1359080778875122,-0.3431592010080006,8.505224639025709,-6.717341759361129,-2.537009922946858,-0.12066875198912319,-0.00015091212022456683,-0.7931618160430979,0.06193280842610349,-0.00789658389806025,-0.011181651720794328,88.23322106869837,35.209327118998594,23.681832428922835,0.04689192526303183,0.04599771684218093,0.14029388134410797
11024,1724820614726323260,0.4270767867565155,0.0850517079234123,0.1060159057378768,0.0549216531217098,-0.022291449829936,0.3854885697364807,-0.9208068251609802,0.0,0.0,0.0,1.2466397855266638,-0.11076012626245252,0.23516116410753585,0.019366053,0.1060159057378768,0.20345521537505956,-0.11523186431101785,0.015192795129787677,9.4513033038222,0.4615654012860766,4.2912152944374835,-0.11860866552679478,-0.001291101085323195,-0.7928697210616568,0.06780103817083116,-0.015008699640250533,-0.011646649902514739,32.932552638953936,59.77881631820932,28.298104635119294,0.05146462311643389,0.026987091468092615,0.14029388134410797
11026,1724820614736755953,0.4279038608074188,0.0849105939269065,0.1059164032340049,0.0548892021179199,-0.0214667506515979,0.3867767453193664,-0.9202881455421448,0.0,0.0,0.0,0.6255675647776222,0.44864997801740053,0.42400339615444793,0.029798746,0.1059164032340049,0.06671753338558599,-0.12740110110720435,-0.274267899078927,5.874615404245247,-1.2698126863182448,-18.047678225232968,-0.11790695674399995,-0.002948545873145703,-0.7955544412294613,0.08797744707482735,-0.009805944119002596,-0.006172187438799881,290.179116073376,-74.76816525811209,-29.14149331003216,0.06511784599435107,0.04510587062581051,0.14029388134410797
11028,1724820614745929655,0.428781121969223,0.0848506465554237,0.1058869287371635,0.0540173836052417,-0.0202995650470256,0.3882939219474792,-0.9197270274162292,0.0,0.0,0.0,6.108573672587489,-1.272919404868646,-0.22442034347887413,0.038972448,0.1058869287371635,0.2737246136285535,-0.1398837571153491,-0.36160273877666604,18.279869732982366,-0.6214868757029972,-6.928213650803443,-0.11538396999252967,-0.004609142549324919,-0.7986996390296723,0.08316188459891882,-0.006093876550979038,-0.0030951214532233817,-1993.9567326373951,470.94109914728915,340.7549746461645,0.07137990804137018,0.061805164484133375,0.14029388134410797
11030,1724820614793850417,0.4296457767486572,0.0846689715981483,0.1057680994272232,0.0521997921168804,-0.0198643095791339,0.3893373906612396,-0.91940039396286,0.0,0.0,0.0,-738.19454499118,186.15960290343605,119.09766297182597,0.08689321,0.1057680994272232,0.07697010935697948,0.015377029133549143,-0.044788570260431315,-20774.052062223178,-4411.338428814815,-17494.15987908728,-0.11168584677796806,-0.004120165263126329,-0.8009157502764833,2.0364160595304384,-0.4870273941322125,-0.15399171403436185,-58822.255525245564,-22125.444460215745,72038.01740609977,0.01527079656423347,0.009661368103800338,0.14029388134410797
11032,1724820614794245501,0.4304569065570831,0.0844749808311462,0.1057067662477493,0.0538501106202602,-0.0201061125844717,0.390560120344162,-0.9187811017036438,0.0,0.0,0.0,-761.575285647991,177.33338481930906,147.7852684883522,0.087288294,0.1057067662477493,-8.19817901793717,-1.7418517230571522,-7.013456153589016,-11967.3382763028,-2488.5709161168406,-11363.30982296764,-0.11491245442887775,-0.00511720115904088,-0.8035910527257469,1.7422299321451362,-0.4128396494020805,-0.10653994167666525,451450.37700729223,-188079.6711734955,42446.42608250534,1.7777188474923171,1.0614709857923241,0.14029388134410797
11034,1724820614795136133,0.4313845336437225,0.0842642411589622,0.1057096570730209,0.0542350336909294,-0.0201317649334669,0.3924068212509155,-0.9179707169532776,0.0,0.0,0.0,665.7114568082044,-322.938097445139,125.02601816007876,0.088178926,0.1057096570730209,-0.8312931930638858,-0.02476437449787356,-4.535152080806434,3554.7040890719422,588.3160078580624,2101.3012392873925,-0.11563134535621576,-0.005603682290232472,-0.8076009702492438,1.0298981209743658,-0.27586919747045613,0.0806560286872724,1497852.1869622194,-484535.0228893898,-103069.96812179704,0.8909383069540585,0.5502418496217434,0.14029388134410797
11036,1724820614796031849,0.4322965443134308,0.0839817821979522,0.1058516353368759,0.0551678538322448,-0.0200959891080856,0.3937150537967682,-0.9173555374145508,0.0,0.0,0.0,1913.0423162967363,-687.4278914216547,-37.12399442274585,0.089074642,0.1058516353368759,-1.8963380109625412,-0.7045747992932083,-3.2667484654810797,-8497.120252753186,2953.568039296975,-26646.329725730022,-0.11731268199103326,-0.0065705425797539675,-0.8104339305533073,2.9463661623947246,-0.9945806821247061,0.11593168524638031,-57168.41153449472,68729.58731618756,-102208.32281618788,0.9312371419018347,0.4873455687844296,0.14029388134410797
11038,1724820614796270734,0.433123230934143,0.08370091766119,0.1058766171336174,0.0556652508676052,-0.0202532708644866,0.3949569761753082,-0.9167880415916444,0.0,0.0,0.0,1807.0240079539053,-640.7054426036763,-56.51840608424843,0.089313527,0.1058766171336174,-4.3917699971147615,0.2375132114596475,-11.420012205832155,-10215.913713234062,3859.5966239315985,-33386.1237534435,-0.11834361609761862,-0.006834898474272755,-0.813149870532553,3.3889297124643183,-1.1514728087009458,0.10218908443520736,-438157.12073488557,192765.33874771497,-79365.47171784998,3.2329303472716764,1.5378069286528717,0.14029388134410797
11040,1724820614807315150,0.4339532554149627,0.0833703354001045,0.1057860925793647,0.054063394665718,-0.019095841795206,0.3952736556529999,-0.916772186756134,0.0,0.0,0.0,-148.35820472421193,48.234136903666254,-2.8395476750846873,0.100357943,0.1057860925793647,0.3497203523342159,-0.0743368763171435,-0.05950078085003466,273.64928113922673,-17.26721434144864,666.785058280444,-0.11447708252476456,-0.0077266748941018214,-0.8137071334314145,0.06339217399319796,-0.02562970365609596,-0.0064538344108360235,-113855.27401918257,40228.4655853522,3086.738440563656,0.07330620367898123,0.029345594645137744,0.14029388134410797
11042,1724820614827733999,0.4348036646842956,0.0830094218254089,0.1057200953364372,0.0535639896988868,-0.0186719354242086,0.3962505459785461,-0.91638845205307,0.0,0.0,0.0,-87.64369955978873,33.46518880429312,-6.763200063839918,0.120776792,0.1057200953364372,0.06105223138156962,-0.01283933285684613,-0.10388904468133052,-29613.721699041085,-10677.826776254937,-45828.60440922693,-0.1132138926699809,-0.008228121168527483,-0.8157849992588554,2.800346721583537,-1.0680692648670629,0.19971797763002996,-21602.201275552216,8193.52274646949,-1610.763292796266,0.041385853021135136,0.015491349323414262,0.14029388134410797
11044,1724820614827996811,0.4355489611625671,0.0827251672744751,0.1057732701301574,0.0546846501529216,-0.018648762255907,0.3976920247077942,-0.915697991847992,0.0,0.0,0.0,-93.40414851572984,35.64870753704751,-7.191326653118958,0.121039604,0.1057732701301574,-7.821914704981996,-2.8552300536513555,-12.303211737516301,-29338.126952353115,-10578.440373290387,-45402.22483050838,-0.11524210867122212,-0.009342166073795167,-0.818911888769549,2.7765630216973856,-1.0589883155111228,0.19788349462221047,-21475.748895037803,8139.597039790554,-1595.0049296757907,2.728701801585086,1.1670114997387833,0.14029388134410797
11046,1724820614839998790,0.4363757371902466,0.0824026316404342,0.1057110428810119,0.0550789982080459,-0.0187700595706701,0.3989607989788055,-0.9151198267936708,0.0,0.0,0.0,-108.47472480034314,40.87833441406899,-7.6896307517501254,0.133041583,0.1057110428810119,-0.0695382621242613,0.005733582909811043,-0.23203951365779882,319.4395048983841,109.39887041172528,495.1998915868808,-0.1160504462270396,-0.009595162170138725,-0.8216863453014581,0.06212244927385413,-0.03058814368382068,-0.004139769899631496,4420.467873006868,-1701.868240570433,345.0674113112971,0.06653747718240481,0.026935461732185768,0.14029388134410797
11048,1724820614851280131,0.4370048344135284,0.0820181667804718,0.105675421655178,0.0550004690885543,-0.0179297961294651,0.3992359340190887,-0.9150214195251464,0.0,0.0,0.0,1.5837356647365457,-0.9880584496346279,0.302538680724424,0.144322924,0.105675421655178,0.07212615156524728,-0.12775261767869345,-0.059540624683922114,-8.265804397486288,8.346677787629439,-22.303349428953034,-0.11523158522755167,-0.011104260483415649,-0.822187313432314,0.08637800429534792,-0.04456372782657514,0.006061575600384117,3466.013281058309,-1310.6625442584257,218.4432829408624,0.06288347943552576,0.012877706641386242,0.14029388134410797
11050,1724820614857974181,0.4377046525478363,0.0816782116889953,0.1057526171207428,0.055212739855051,-0.0179772675037384,0.4003300964832306,-0.9145294427871704,0.0,0.0,0.0,-0.19807135728557324,-0.22691389071131418,-0.1814993007510489,0.151016974,0.1057526171207428,-0.06591687184452819,0.008273525876366728,-0.35816640370058533,-0.4903198023552253,12.965388728892341,-14.412207543509249,-0.11564603783504283,-0.011325404187352653,-0.824575365740253,0.09473013041444034,-0.050181785690238456,0.005696675696813536,-206.6956498614615,108.20822504108351,-23.42915850658663,0.10838397783645703,0.034770511857280514,0.14029388134410797
11052,1724820614866847104,0.4384297728538513,0.0812400430440902,0.105734534561634,0.0544822439551353,-0.0177988447248935,0.4008832275867462,-0.9143344163894652,0.0,0.0,0.0,-1.3324968586100185,0.6685659646738809,0.18548803712269057,0.159889897,0.105734534561634,0.1664984268722218,0.03681143970758491,-0.1308809975621165,-8.530699555950354,1.5131808771136475,8.457629271701007,-0.1141553317498334,-0.011134073040515594,-0.8257665159424739,0.07596900322273115,-0.04499335225098289,0.002592737158808589,-25.672515851291465,36.23391864398715,35.254116131228706,0.09167879241704315,0.019142965764305468,0.14029388134410797
11054,1724820614876468214,0.4391006529331207,0.0808529481291771,0.105807788670063,0.0556589812040329,-0.0184225272387266,0.4018727838993072,-0.9138168096542358,0.0,0.0,0.0,-0.5135137886703514,0.3423175462325412,0.46096901652304334,0.169511007,0.105807788670063,-0.27783543522881166,0.03360240373002239,-0.2285079773280357,-37.68602509454011,-3.1083481179376973,-9.643470561303404,-0.116803799139064,-0.011066255181385936,-0.8279879873041162,0.07130627700823666,-0.037686595325526095,0.009961892867815791,44.73658809026179,-42.60347665161712,-8.586888176079873,0.07687725572314504,0.018288267854656006,0.14029388134410797
11056,1724820614886764852,0.439852237701416,0.0804929733276367,0.1059362366795539,0.0584413446485996,-0.0193776804953813,0.4033239185810089,-0.9129834771156312,0.0,0.0,0.0,-0.497925413156203,-0.1921575579244288,-0.03759492611159865,0.179807645,0.1059362366795539,-0.5722391049227944,-0.028980386063085978,-0.32225280554695124,21.802072984673835,-9.08065982348445,9.991487360411753,-0.1226587257433591,-0.011758851009393992,-0.8312466951855739,0.06570057831475395,-0.03875851262625307,0.011347709354495805,0.4715228986082316,-16.86957196640444,-27.331157549996313,0.07516344967931995,0.02455260221185574,0.14029388134410797
11058,1724820614896626357,0.4404312670230865,0.0800748839974403,0.1060374975204467,0.0582031197845935,-0.0184678211808204,0.4034879803657532,-0.9129450917243958,0.0,0.0,0.0,-0.5031207607277133,-0.027589912795747296,-0.10794153451304817,0.18966915,0.1060374975204467,0.11872411599434948,-0.1468889229152203,-0.04336551096212003,44.28034533534318,7.052487478808175,9.03363368785476,-0.12148483165008053,-0.013248692684368407,-0.8314948353056566,0.06122941738763643,-0.04148512369766166,0.00935072875519083,-23.766771787720966,20.008033717250587,-2.294310348718939,0.0710192357027111,0.00924322453672258,0.14029388134410797
11060,1724820614906103030,0.4410344064235687,0.0796900391578674,0.1061177551746368,0.0567237921059131,-0.0182533673942089,0.4041152000427246,-0.9127652049064636,0.0,0.0,0.0,-0.9399935377938644,0.1922558198522133,-0.08561455182121525,0.199145823,0.1061177551746368,0.3035216843228845,0.0930568491827481,-0.13303428635314368,-18.13788949469735,9.894606471297246,-7.335792271277782,-0.11859099094562082,-0.012524143336619099,-0.8328523750891055,0.05600866456102338,-0.03947988310947892,0.009188956559272654,26.18992438981257,-28.691825891091824,20.419446928404597,0.07296365648317056,0.013610520386078136,0.14029388134410797
11062,1724820614916812671,0.4415418207645416,0.0792808979749679,0.1062248796224594,0.0584075711667537,-0.0190064646303653,0.4049926400184631,-0.9122545719146729,0.0,0.0,0.0,0.21541555278778235,-0.7430546955615367,0.35169281939526914,0.209855464,0.1062248796224594,-0.34626404099849645,0.01233519133786117,-0.18586380993030635,-26.73627575682967,-6.81563947964983,0.621731395312235,-0.12227429495118215,-0.012632140328941492,-0.8348444797783476,0.04123253095422719,-0.03765498548604462,0.0074424659007457095,66.27639907176571,-39.021664546174065,22.829781129311353,0.06024270098229982,0.004478958928572691,0.14029388134410797
11064,1724820614931293033,0.4420185387134552,0.0787463709712028,0.1062825247645378,0.059084303677082,-0.0187028516083955,0.405402272939682,-0.9120352268218994,0.0,0.0,0.0,0.36048031740124564,-0.36221927952988864,0.3297955363446019,0.224335826,0.1062825247645378,-0.06897852797967553,-0.07222877640531052,-0.06810855213367405,0.03879629294677045,13.53353264116461,-29.32041779198145,-0.12326187408845525,-0.013790940139465534,-0.8356951956513463,0.07558219691948409,-0.06629889885679674,0.022613620809009305,-210.96603092517526,166.32038247096597,-92.26740355931484,0.049510907435136274,-0.004811861394207095,0.14029388134410797
11066,1724820614936688972,0.4425121545791626,0.0783295407891273,0.1064420118927955,0.0593197904527187,-0.018869824707508,0.4061452448368072,-0.9116858839988708,0.0,0.0,0.0,-1.2222197128248915,0.816778853638289,-0.35055831667905557,0.229731765,0.1064420118927955,-0.10719487119237231,0.039752175999287195,-0.3016267241473331,-5.326072859403865,11.429016021597608,-23.936615110130443,-0.12381766205972933,-0.013778631971785414,-0.83733694593454,0.07348238344012259,-0.06500426257433878,0.022949651359219114,-207.12853998988035,160.97198887057286,-86.63451994788184,0.11902142046097745,0.006641448954725188,0.14029388134410797
11068,1724820614948616220,0.4429141283035278,0.0778770372271537,0.1065415441989898,0.0601738281548023,-0.0187646374106407,0.4065263569355011,-0.9114622473716736,0.0,0.0,0.0,-1.420509987873975,1.22012667416225,-0.34375844564445734,0.241659013,0.1065415441989898,-0.12441551585398282,-0.06974511665316513,-0.07724140613967494,5.508713769747292,1.6639186822119216,6.512199074737533,-0.12529005486938466,-0.014718508531452032,-0.838147890759881,0.03694142736933159,-0.04005416413433771,0.007884471146257788,61.81871437689817,-29.64101784365896,26.379628707309756,0.05086248691623951,-0.004796744038766893,0.14029388134410797
11070,1724820614958294993,0.4432971179485321,0.0774727463722229,0.106614239513874,0.0601945891976356,-0.0189038962125778,0.4070228040218353,-0.9112364053726196,0.0,0.0,0.0,-0.20607047505946885,0.43482517651559727,0.11427635067040337,0.251337786,0.106614239513874,-0.01649163757717933,0.03153296277452615,-0.11082258884550296,5.280134186838103,5.861620019182945,-2.0851893653259417,-0.12543353865805812,-0.014549817453561459,-0.8392503686188405,0.03609816462388338,-0.035091554977392025,0.011777893613505341,73.75270994064562,-67.50617501326467,18.245905011851875,0.05762030375329686,-0.003832445598391561,0.14029388134410797
11072,1724820614968708338,0.4436341226100921,0.0771821588277816,0.1067846938967704,0.0602486096322536,-0.0191195923835039,0.4075881242752075,-0.9109756350517272,0.0,0.0,0.0,-0.01753215676706965,-0.11543059510884657,-0.021500050339508747,0.261751131,0.1067846938967704,-0.027278238435300896,0.04100919544545107,-0.11702624220584888,-1.2932940366988046,-1.6952701077744163,5.484494035279286,-0.1256994024704764,-0.014278755147346342,-0.8405130550935339,0.032619655716967344,-0.03143640388313429,0.009741374215492371,10.103953601025838,-22.122021756939517,9.674952859160829,0.04260702106290469,0.0023021651939770203,0.14029388134410797
11074,1724820614977673315,0.4439285397529602,0.0768730789422988,0.1068208739161491,0.0604068264365196,-0.0192118790000677,0.4076716005802154,-0.9109258055686952,0.0,0.0,0.0,0.011293516806285098,-0.07666000119104366,0.24054093607112415,0.270716108,0.1068208739161491,-0.0408596043980836,0.0057034433818623324,-0.020930268077444587,-16.197685606212413,-3.5405881933620345,-4.132240654617943,-0.12606294774898444,-0.014251584958923475,-0.8407055725644398,0.034905332635840836,-0.03607122509145544,0.010892095226083143,-24.030180529621354,35.92058253919985,4.52613276115027,0.047644266331355045,-0.003285610844721831,0.14029388134410797
11076,1724820614986457094,0.4442529082298279,0.0765425115823745,0.1069755554199218,0.0616999194025993,-0.019628994166851,0.4083794355392456,-0.9105131030082704,0.0,0.0,0.0,-0.43426407310559445,0.5107805432076211,0.0676950728578497,0.279499887,0.1069755554199218,-0.3094998113733906,-0.02197447242103632,-0.18504071783965464,-5.388366807442733,-1.6443245806669042,-4.363504839635631,-0.1287585850025264,-0.014649567725914435,-0.8422934043025609,0.032907511617430885,-0.03295498544540809,0.013970432581229986,-29.743323311587098,37.62531445114184,-18.04051005103256,0.05291865430863522,-0.0017967098215207992,0.14029388134410797
11078,1724820614996659844,0.4445410072803497,0.0762617290019989,0.107074961066246,0.062055479735136,-0.0196503605693578,0.4086442589759826,-0.9103696942329408,0.0,0.0,0.0,-0.4890744672338678,0.5479915533292299,-0.09696374078279568,0.289702637,0.107074961066246,-0.06588773286895744,-0.020895265244739437,-0.05985668378308015,14.530837228185778,-1.7079617814042474,5.613216756017878,-0.12942227667381342,-0.014939601303609159,-0.8428717030194303,0.026025814228759714,-0.02589477121885775,0.011310110911453286,19.017137069404747,-2.639171768523166,19.143016845489605,0.039473566765060183,-0.0007813487959929766,0.14029388134410797
11080,1724820615006637208,0.444779098033905,0.0760192275047302,0.1072030961513519,0.0622305758297443,-0.0194010660052299,0.4089382290840149,-0.9102309942245485,0.0,0.0,0.0,-0.06136864056590019,0.4603241568944628,0.4382750039297899,0.299680001,0.1072030961513519,-0.012099360637893372,-0.055632784108554406,-0.06879797803871256,-2.7465074238066713,0.09234661968875146,-0.21233171656021987,-0.12953368392591008,-0.015578649885500616,-0.8434806732319597,0.022955274209717658,-0.02183225934045696,0.011940680443548679,20.576367130782668,-2.9363060821741307,23.288123466543876,0.03421674610372204,-0.0010643615284187144,0.14029388134410797
11082,1724820615016477688,0.444996178150177,0.0758283883333206,0.1073118448257446,0.062805950641632,-0.0195292886346578,0.4092084765434265,-0.9100672602653505,0.0,0.0,0.0,-0.07523446462188887,0.48820965299029084,0.37281047227658337,0.309520481,0.1073118448257446,-0.11810507045368152,-0.020036883729503612,-0.06425056615565738,-11.167593697813857,4.01891183564824,-11.011516384356716,-0.13068644146468814,-0.015856186769682243,-0.8440820721125721,0.02474263127902887,-0.01678659019441131,0.019893797419304526,-19.525019213545246,-5.232444793459793,-31.214961431044664,0.029322341083294467,0.0012191987156203634,0.14029388134410797
11084,1724820615027211090,0.4452931582927704,0.0756787285208702,0.1076288968324661,0.0639628171920776,-0.0200910288840532,0.4107386171817779,-0.9092848896980286,0.0,0.0,0.0,-0.4968941771135691,0.3376139317789096,-0.249792648977201,0.320253883,0.1076288968324661,-0.24259786650710985,0.027801602718632558,-0.31676736171995024,1.6694268514095651,1.0591189658871658,0.8218909888617946,-0.13323603671985704,-0.0160077438531376,-0.8474923043999908,0.020927871480946436,-0.011833698109322999,0.018798016782773708,-18.747556589988488,-6.4853894627615265,-25.359257590166546,0.02923441506463375,0.010562738238430572,0.14029388134410797
11086,1724820615038487782,0.4454492926597595,0.0755702778697013,0.1077136248350143,0.0643074885010719,-0.0202357303351163,0.4108284115791321,-0.9092167019844056,0.0,0.0,0.0,-0.4649898071954538,0.3538715500453428,-0.14897795623409293,0.331530575,0.1077136248350143,-0.06657915344768728,-0.0005110558881496977,-0.019034891554842295,2.951681989493215,-7.4787076895056535,10.074656517107119,-0.1339834081604787,-0.016042046765951917,-0.8477041657977327,0.013648319245007201,-0.009493635290418467,0.014231286021566092,9.782374061182733,14.160956959532065,-0.1927794509858476,0.01649089882314905,0.002674466392177007,0.14029388134410797
11088,1724820615046206780,0.4455536007881164,0.0754976496100425,0.1078589707612991,0.0648319646716117,-0.0201078951358795,0.4108954071998596,-0.909152090549469,0.0,0.0,0.0,-0.352741192866033,0.5303849886212143,-0.1987216075927974,0.339249573,0.1078589707612991,-0.11067329101414497,-0.08448864233883058,-0.0275402764631754,-0.6219621987756283,-3.412553975263259,-0.07450891374187196,-0.13483569429707412,-0.016716821828986934,-0.8478275577112809,0.011013039623353649,-0.005988784527592106,0.014433920949553425,20.123369995233332,13.196226469218928,0.20935012379291962,0.0163083305358158,0.003625653447565309,0.14029388134410797
11090,1724820615056707284,0.4456335306167602,0.0754836201667785,0.1079477444291114,0.0650752484798431,-0.0201340056955814,0.4109511971473694,-0.9091089367866516,0.0,0.0,0.0,-0.061707677641592795,0.5308059028058166,-0.10148029587790575,0.349750077,0.1079477444291114,-0.04449055335317322,-0.013664301497630581,-0.013647412881372903,2.5747985388886963,1.951755502694303,1.1869764861809324,-0.13530081216990936,-0.016878294873706064,-0.8479502843108186,0.0071471035275045836,0.0006708445397967111,0.00913365825010004,20.198092058149506,-9.332631779092582,15.087610756721684,0.006179284894709201,0.0048016451486529825,0.14029388134410797
11092,1724820615068478042,0.4457115232944488,0.0755179971456527,0.1080642193555831,0.0655449330806732,-0.0199981424957513,0.4109308421611786,-0.9090873599052428,0.0,0.0,0.0,0.07684087645035664,0.2972837933978407,0.15299740304812004,0.361520835,0.1080642193555831,-0.06337319513225237,-0.05393400745640713,-0.0014714616183409337,3.3673074965572054,2.836232957163243,-2.1567226840190727,-0.1360479357627549,-0.017509646664946914,-0.8478815201863761,0.010464385009854027,0.005554317630141803,0.013260338678270145,-4.770497240877392,-11.577710222743328,-11.777129423701888,0.0023664247244458937,0.007450141056538184,0.14029388134410797
11094,1724820615076313470,0.4458135366439819,0.0755752548575401,0.1081856712698936,0.0655855685472488,-0.0200102534145116,0.4110549092292785,-0.9090280532836914,0.0,0.0,0.0,-0.046812937334260174,0.24965762703811106,-0.11347153119122855,0.369356263,0.1081856712698936,-0.011058509300876544,0.0009264348048782108,-0.03501469168530949,4.7439884399499395,5.680379439194795,-2.976563891228903,-0.1361297983230458,-0.017539675742132124,-0.8481543414887995,0.009997315248403638,0.007270295660503745,0.01342854826391049,-13.759720383902852,-8.095043883973757,-29.66604111354801,0.0034009625540536645,0.015450917124449359,0.14029388134410797
11096,1724820615088670915,0.4458781778812408,0.0756643712520599,0.1083112359046936,0.0654204711318016,-0.0202211588621139,0.4113349914550781,-0.9089086651802064,0.0,0.0,0.0,-0.17744747061805077,0.11031899482554353,-0.39544234811063145,0.381713708,0.1083112359046936,0.009898298914754598,0.045372066767189,-0.04637555282781581,13.991878862989147,6.542836297044892,1.0783624635507945,-0.1359963613400813,-0.01706191264873544,-0.8487983924716346,0.009668231576036135,0.01095287155378255,0.009396466136063708,-32.44141279612108,-24.34520590773701,-3.9619952757752834,-0.0017814721099069703,0.009750153793827734,0.14029388134410797
11098,1724820615096344748,0.4459735155105591,0.0757662504911422,0.1083796992897987,0.0646363422274589,-0.0203187074512243,0.411475658416748,-0.9088988304138184,0.0,0.0,0.0,-0.5306163780633019,-0.13878307250219313,-0.33599085396104755,0.389387541,0.1083796992897987,0.1758645155908824,0.10962025974885273,-0.02858053703112694,5.594587942310896,-1.1286746407274544,2.622977397891777,-0.13464127266736253,-0.01625798028948153,-0.8491291180874482,0.007587831199042938,0.01090505086262672,0.006032360515386692,-25.89827207156759,-20.739976213667973,21.423511205032213,-0.001613652154096485,0.018906027281683405,0.14029388134410797
11100,1724820615106561760,0.4459852576255798,0.0758454129099845,0.1084020286798477,0.064632274210453,-0.0201434530317783,0.4114559888839721,-0.908911943435669,0.0,0.0,0.0,-0.5214691070665745,-0.1912391456484649,0.06893123214986813,0.399604553,0.1084020286798477,0.014927703288700654,-0.03115440271384826,0.002354535132151791,-13.69892081753053,-8.975657797383901,3.5102178096535583,-0.13448985293914378,-0.016570180784067398,-0.8490625915395807,-0.0013636472253217846,0.00768400245665779,0.003992429827326838,31.943384110060016,2.6455607888527504,33.757529233770356,-0.005019983360473132,0.006730522443163105,0.14029388134410797
11102,1724820615117092219,0.4459436237812042,0.0759256333112716,0.1084636822342872,0.0652991458773613,-0.0200385581701993,0.4112062752246856,-0.908979594707489,0.0,0.0,0.0,0.15189048144545414,-0.07894248636005069,0.3606532528128754,0.410135012,0.1084636822342872,-0.10704673815419351,-0.0735449092158628,0.04455466884266327,-11.536025149670015,-3.2532475650350703,0.6631905706238577,-0.13562673532442432,-0.017274415252070536,-0.8484933107728702,-0.0030055857229775995,0.00701626484385276,0.0076334704484182225,40.64744576029486,2.8072174223281374,1.1223798804827911,-0.00822707212695496,0.0035891753116744085,0.14029388134410797
11104,1724820615126245247,0.4459236562252044,0.0759850665926933,0.1085477024316787,0.0663627833127975,-0.0200409218668937,0.4110575914382934,-0.9089697003364564,0.0,0.0,0.0,0.33859569904258496,-0.11575459313021677,0.1594595792779897,0.41928804,0.1085477024316787,-0.2122624763241189,-0.09717800301270965,0.024018824631512677,1.8311287393691662,2.490577163493992,-1.9649082222336929,-0.13757556488233463,-0.018125662735276722,-0.8481542529917285,0.0008335640037735459,0.006170130061793788,0.011053005082174217,-0.803964519048848,1.1533714670642177,-22.252830345774985,-0.006145744381609005,0.004227717976421502,0.14029388134410797
11106,1724820615136919704,0.4459700882434845,0.0760469064116478,0.10868901014328,0.0665085390210151,-0.0200659520924091,0.4110205173492431,-0.90897536277771,0.0,0.0,0.0,0.06607283824074975,-0.039017783806114814,-0.08145994499746517,0.429962497,0.10868901014328,-0.026819839209507323,-0.007445080167191901,0.006514019354751447,6.101020758199586,4.625830221529935,-0.26100656291661284,-0.1378633268445911,-0.018194839958116802,-0.8480745944474604,0.00344147133255035,0.004644313663714872,0.010089412325236857,-20.46412567713579,8.034073611475263,-10.464651969826985,-0.0012267973793223014,0.008396622914993133,0.14029388134410797
11108,1724820615147515605,0.4459969997406006,0.0760840326547622,0.1087628006935119,0.0668914169073104,-0.0202568713575601,0.4109246432781219,-0.9089863896369934,0.0,0.0,0.0,-0.09747661953468967,0.05500071882150814,-0.06502216808689687,0.440558398,0.1087628006935119,-0.08072720289595502,0.0018068369202062034,0.018251281520713446,-0.6705184277202512,-0.42164372190937593,-0.14652482100661618,-0.13872213986635795,-0.018149218898712162,-0.8478856731111897,0.0022668575336908248,0.005323940343927802,0.009318943677609326,-7.951671327370011,-5.857380790834982,-5.94056368980533,-0.0008206652100136432,0.004927330199121845,0.14029388134410797
11110,1724820615156572571,0.4460154175758362,0.0761463418602943,0.1088654324412345,0.0671296864748001,-0.0203074030578136,0.4108864367008209,-0.908984899520874,0.0,0.0,0.0,-0.11156085776058011,-0.11208605391728405,-0.17682450323047555,0.449615364,0.1088654324412345,-0.05260528448792047,-0.01203575595831773,0.007214441210897616,-0.3760843920165149,-2.456556248496297,-0.42599761605322406,-0.13920001947606245,-0.018248122624507385,-0.8478057562374236,0.0014875882193869927,0.00575132375328824,0.008789585526339572,3.0810240241991123,-9.705586901514781,-0.05951828100043266,-0.0036057397936446727,0.007508944841129498,0.14029388134410797
11112,1724820615166693995,0.4460242986679077,0.0761917904019355,0.1089256405830383,0.0676676407456398,-0.0202925708144903,0.4108058214187622,-0.9089817404747008,0.0,0.0,0.0,-0.027937680868090287,-0.11143026847417609,-0.03847337118211652,0.459736788,0.1089256405830383,-0.09578634271683889,-0.0473980588593032,0.011867880801727093,3.7524782298939194,-1.5119379009302434,1.782223272550883,-0.1401729362419438,-0.0187064597825705,-0.8476199262437111,6.97773289566328e-05,0.0028153024211259314,0.005660910435103084,12.685247152543557,15.455813878932734,27.451468702816847,-0.0026740039450903965,0.004471923773886133,0.14029388134410797
11114,1724820615178424734,0.4460141360759735,0.0762020424008369,0.1089881360530853,0.0674483552575111,-0.0199711509048938,0.4105268716812134,-0.9091312885284424,0.0,0.0,0.0,0.1810078676914605,0.27913320803603253,0.4709363482825004,0.471467527,0.1089881360530853,0.05725583551285443,-0.03818884025457967,0.050754785069605145,-9.99201267990514,0.16827945654503162,-2.6725006465621615,-0.1395136288420144,-0.019067083553743706,-0.8469679481846613,0.0012667299707729285,0.003937051619205434,0.008889203805608759,5.509609516019354,3.313547467741669,6.187443083611214,-0.0011267559162903781,0.0005648586982292369,0.14029388134410797
11116,1724820615186605142,0.4460366666316986,0.0762517228722572,0.1090811714529991,0.0680962353944778,-0.0200815126299858,0.4105224907398224,-0.909082531929016,0.0,0.0,0.0,0.1558997628686045,0.13521301819809603,0.3091259465603221,0.479647935,0.1090811714529991,-0.15590679642599098,-0.04033067064693426,-0.005263365467196577,-14.852318262694688,0.686031548948379,-5.389373523803117,-0.140789075185975,-0.019399784468905595,-0.8469644866921703,0.003197952884274713,0.007267315849722511,0.013858254121783986,-7.0218180164495925,-25.146313872152703,-33.20970515202889,-0.0025052801238138805,0.007391108373033684,0.14029388134410797
11118,1724820615196472220,0.4460735023021698,0.0763376429677009,0.1092474907636642,0.0689037889242172,-0.0203102454543113,0.4106823205947876,-0.908944308757782,0.0,0.0,0.0,0.039573962917540284,-0.2028001764999101,-0.17838779850855313,0.489515013,0.1092474907636642,-0.16909476718314298,-0.022280624431180295,-0.04108274038609843,5.1532401898033715,-1.8371155478256753,1.4639137900316916,-0.14245028803832352,-0.019674641125837472,-0.8473347104723751,0.0037819732667863093,0.005365577635904728,0.01335811802525999,-5.023849783704877,-5.954971793639373,-16.17275489314626,-0.003722917500383019,0.010523767095889494,0.14029388134410797
11120,1724820615206774597,0.4461129903793335,0.0763569697737693,0.1093474850058555,0.0692876651883125,-0.020040588453412,0.4105139970779419,-0.9089971780776978,0.0,0.0,0.0,0.06059134752117973,0.04028738046431052,0.012503179032121281,0.49981739,0.1093474850058555,-0.04619411192300542,-0.0806466911828684,0.02879572111144502,7.08992100586852,-1.1893624267001743,2.5956848385829603,-0.14293446880547286,-0.02045486242763108,-0.8469228644824691,0.003978684842678604,0.003167991429259498,0.010146641365965436,1.8907671680839848,17.130814625974185,13.09320331046347,0.0013312347381797642,0.004838578254328825,0.14029388134410797
11122,1724820615217036585,0.446155309677124,0.0764026865363121,0.1094561144709587,0.0694923996925354,-0.019873647019267,0.4104359447956085,-0.9090204238891602,0.0,0.0,0.0,0.07846842438296536,0.15000531190159955,0.09130383165296874,0.510079378,0.1094561144709587,-0.02290489071930665,-0.04709995614039659,0.012633429940843379,-8.27830573034059,2.9085131751497824,-3.3355641198897183,-0.14317358932143226,-0.020914780124305286,-0.8467255449801168,0.005024650335244019,0.006173617206137294,0.013589099045691277,-4.186156403125304,-4.6806649027660185,-6.509770559521792,-0.00038394034432562556,0.0070294892082645765,0.14029388134410797
11124,1724820615226346828,0.4462096989154815,0.0764746814966201,0.1096080020070076,0.0703396052122116,-0.0201265104115009,0.4105517268180847,-0.9088974595069884,0.0,0.0,0.0,-0.010580037695938294,-0.023419468641795393,-0.08915200814707913,0.519389621,0.1096080020070076,-0.18907249249262376,-0.023066183900783924,-0.03329283780305225,-2.5998812469531707,2.3190093595788883,-0.7646539645602451,-0.1449281071847515,-0.02117180606220825,-0.8470016048252751,0.00555706801974587,0.006363295892541032,0.012376853282965783,-9.528314287906262,-6.449594428291617,-7.812238262805759,-0.0015797483191068462,0.01115605073633266,0.14029388134410797
11126,1724820615238614453,0.4462732672691345,0.0765306055545806,0.1096961945295333,0.0701914802193641,-0.020079294219613,0.4104176461696625,-0.9089705348014832,0.0,0.0,0.0,-0.12688378721734578,0.09430495923425708,0.002036979531233274,0.531657246,0.1096961945295333,0.025507240497000257,0.0011406224418911489,0.02470352981548131,-5.032242786522076,-0.4666240499020399,1.6646305085851114,-0.1446214999148667,-0.021114239367206702,-0.8467037116665171,0.00433187409502267,0.0053681131165221885,0.011946777114678397,-4.822053964591469,3.1402972145959422,-3.949880922311711,0.0001695853391387265,0.007497013690293966,0.14029388134410797
11128,1724820615246420666,0.4463028609752655,0.0765765309333801,0.1098130866885185,0.0706589370965957,-0.0202348679304122,0.4103239476680755,-0.9089730978012084,0.0,0.0,0.0,-0.14138565833674546,0.08674964172035748,-0.08534031604686038,0.539463459,0.1098130866885185,-0.1256579145157067,-0.014621412938464862,0.022483327647680573,-3.0528013706528414,1.9469644308259757,-0.8663333332370083,-0.14560641788521098,-0.02120179523149171,-0.8465134021702898,0.003207217282653829,0.006975679316588046,0.01214693916299403,3.4783057275788707,-6.884822475723098,-5.507492934866789,-0.001576531520532004,0.008302234506906463,0.14029388134410797
11130,1724820615257135931,0.4463286399841308,0.076667346060276,0.1099016591906547,0.0701193064451217,-0.0203718226402997,0.4103345870971679,-0.9090070724487304,0.0,0.0,0.0,-0.025630076291946746,-0.07405211417745516,-0.06072541529391928,0.550178724,0.1099016591906547,0.08155278430364625,0.06457625160848679,0.0046412451517830414,1.451341251576677,-1.099084346354989,-1.0319041387850854,-0.1447315095980194,-0.020509929509362267,-0.846564368757684,0.0017317444496391943,0.006152210602980546,0.009600131921033928,11.76797501787789,-6.574335140974902,-0.3748609350299059,-0.004583549872752021,0.008673787262702983,0.14029388134410797
11132,1724820615266391857,0.4463392794132232,0.0767057165503501,0.1100011840462684,0.0703469142317771,-0.0204063653945922,0.4103250503540039,-0.9089930653572084,0.0,0.0,0.0,0.09100979497692058,-0.06748332834313775,-0.08555897715787769,0.55943465,0.1100011840462684,-0.04802277438629216,-0.013478737629452828,0.0001527024698611886,-18.314593655279673,-2.618428411664202,-0.4989798062923876,-0.1451764171775993,-0.020633176972149517,-0.8465450114261003,0.0023905369923156172,0.005489160203497878,0.010452875978248954,6.374522071972626,-1.0346960010301278,-2.129078003816333,-0.0021210118187793775,0.004861600708388369,0.14029388134410797
11134,1724820615276125342,0.4463752508163452,0.0767728984355926,0.1100998595356941,0.0715027526021003,-0.0210356898605823,0.4103262722492218,-0.9088878631591796,0.0,0.0,0.0,0.089317274418846,-0.09540945176162648,-0.1006126525288688,0.569168135,0.1100998595356941,-0.27045860183796766,0.02055068436270324,-0.004847845837778434,-7.170820938718309,1.54225573592236,-0.707004340533004,-0.14780733394205994,-0.020442173154425078,-0.8466207517758754,0.003479399930490956,0.004874809803983915,0.007801325674075876,-3.728810302196463,-2.2962907596418916,-1.7308713273233076,-0.0025138037566939816,0.00855784670369419,0.14029388134410797
11136,1724820615290497877,0.446420669555664,0.0767999365925788,0.1101623997092247,0.0717678666114807,-0.0211540888994932,0.4104455709457397,-0.9088103771209716,0.0,0.0,0.0,-0.039719875179624664,-0.11625695154719307,-0.12940066507123604,0.58354067,0.1101623997092247,-0.0407126615301891,0.0012507694344621103,-0.019110712683114456,0.9805347356242446,-10.334446070553161,8.593532432871807,-0.14838687384373564,-0.020464923419406703,-0.8468951612651225,0.004284536363563518,0.0028182090714956587,0.010001364116186906,-8.149955182283698,8.115642084803453,-13.319168390563254,0.000772403790312165,0.003913961155774014,0.14029388134410797
11138,1724820615296153218,0.4464474022388458,0.0768179595470428,0.1102315336465835,0.0720306038856506,-0.021045571193099,0.4102951884269714,-0.9088600277900696,0.0,0.0,0.0,-0.08396793907512314,-0.049072884004921186,-0.2299067485860781,0.589196011,0.1102315336465835,-0.0685566553236496,-0.07720288321906034,0.05081993778537073,-1.5278054765465217,-5.904237885023473,6.112911803888862,-0.148781797435346,-0.020854175084209697,-0.8465462336337221,0.003846861123692591,0.0022204527240368144,0.008640978210719297,-3.781962786722217,11.194227807745088,-3.326565638207427,0.0009997558571647335,0.006688632072971644,0.14029388134410797
11140,1724820615306523226,0.446470558643341,0.0768226087093353,0.1102529987692833,0.0720967203378677,-0.021147683262825,0.4103199541568756,-0.9088411927223206,0.0,0.0,0.0,-0.04632477226916004,0.05397594982169496,0.01027646570772578,0.599566019,0.1102529987692833,-0.019830685542509364,0.013087473326586127,-0.004681343369434471,-3.0648692349445263,4.068749156394939,-4.182942396700753,-0.14898601368155234,-0.02072715869286243,-0.8466143316637695,0.002851060775146408,0.00278829434273975,0.006459204813500818,6.40039551710843,0.7513754782094393,12.287550468021504,0.001186263794355809,0.002014152355106467,0.14029388134410797
11142,1724820615316870559,0.4465064406394958,0.0768756195902824,0.1103651523590087,0.0727043971419334,-0.0214482024312019,0.410476952791214,-0.9087148904800416,0.0,0.0,0.0,0.04850573747500908,-0.033090260346596734,0.02515121144448179,0.609913352,0.1103651523590087,-0.13170090164033085,0.007300889511445726,-0.035892469390822,-0.3781017801888962,-5.986193271785524,4.946832741438913,-0.15034093840269255,-0.020707836878575824,-0.8469929884476104,0.002884883489894463,0.0033387263126405387,0.00884388285195481,9.936963863019887,-4.654694507544622,3.906498116755687,-0.001317486499526548,0.007171391216213145,0.14029388134410797
11144,1724820615326045028,0.4465281665325165,0.0768917351961135,0.1104300618171691,0.0730795338749885,-0.0211851559579372,0.4101317226886749,-0.9088467955589294,0.0,0.0,0.0,0.1459538808394331,-0.04521140991034697,0.08107508473125047,0.619087821,0.1104300618171691,-0.050298781627392763,-0.09176511545735051,0.07426894914784726,4.733795966735956,-1.9250812469901617,6.213591524001027,-0.15081925128754842,-0.021437990098651258,-0.8461927895821596,0.00369788044241659,0.002333244720285954,0.007404512676122188,6.970085770786748,7.040245683474275,10.274708489050154,0.00040600596648819923,0.0035699222326043977,0.14029388134410797
11146,1724820615336751651,0.4465843737125397,0.0769239217042923,0.1105134561657905,0.073324829339981,-0.0213172566145658,0.4097924828529358,-0.9089770317077636,0.0,0.0,0.0,0.1749547485926601,0.1346389646241644,0.24329903863167535,0.629794444,0.1105134561657905,-0.051329708531210036,-0.0015121024339817934,0.0684040608218839,-0.8766797131282784,2.5449833764514067,-4.835205925263274,-0.15138437975886923,-0.021343754965262186,-0.845466246301285,0.0059769809662597595,0.0026536413131994507,0.011245826706053563,-8.985403080120443,8.703124357546553,-9.45490655299459,0.0013990525363212461,0.006481939514478408,0.14029388134410797
11148,1724820615346333790,0.4466478824615478,0.0769463256001472,0.110650859773159,0.0736697614192962,-0.0213223434984684,0.4098399579524994,-0.9089275598526,0.0,0.0,0.0,-0.01143027912526462,0.14861341493287983,-0.05831977891449941,0.639376583,0.110650859773159,-0.0664226183397983,-0.0275911265246021,-0.01469546208743222,-1.4159050219852944,0.22622064049702567,-1.4851984667984772,-0.15201870240384227,-0.021626378289730172,-0.8455654354339687,0.007328284405559771,0.004841771290393648,0.012586821894514877,-16.81643761685811,-6.187059855296797,-20.113187115038066,0.0029560607726687397,0.0075515814601665445,0.14029388134410797
11150,1724820615356417648,0.4467292129993438,0.0770217180252075,0.1107591837644577,0.0740144923329353,-0.0215302854776382,0.4096201062202453,-0.9089937806129456,0.0,0.0,0.0,-0.15304412799098338,0.005091688736359373,-0.14054523432191468,0.649460441,0.1107591837644577,-0.079010959233553,0.005972175749668539,0.04659680396175176,-0.9226373723227583,0.20657745131021898,1.5357539577294952,-0.15282526269795016,-0.02149551255516631,-0.8451100802753369,0.005595210627504343,0.005494161677060294,0.00989475285290009,-5.833129177892625,-9.342485620939968,-0.9008575275685531,-9.230485184094347e-06,0.011967048175859231,0.14029388134410797
11152,1724820615368195794,0.4467611312866211,0.077059157192707,0.1108640655875206,0.0745546668767929,-0.0215523298829793,0.4095824062824249,-0.908966064453125,0.0,0.0,0.0,-0.10879499508708704,-0.03766862600673898,-0.05137111347994594,0.661238587,0.1108640655875206,-0.08539683926344004,-0.034542232980559785,0.002193453199105249,9.766219608286168,0.08233456325365074,-0.4349008098069853,-0.15383297108362098,-0.0218936357797619,-0.8450223404269276,0.004051571032114509,0.004734142414486442,0.009978604436099658,-1.33461661042214,-5.364204212869363,-15.159457125092707,-0.00038390109792737923,0.005047562143971757,0.14029388134410797
11154,1724820615376265721,0.4468012452125549,0.0771059617400169,0.1109505295753479,0.0743920877575874,-0.0214213412255048,0.4095196723937988,-0.9090108275413512,0.0,0.0,0.0,-0.14771717973224874,-0.0905434739886594,-0.29938889786361234,0.669308514,0.1109505295753479,0.05041304272991394,-0.01440324073057432,0.01712414308758473,3.4365305515599047,0.36124139976222214,0.3776833671330653,-0.15342955122979235,-0.021987356151262592,-0.8448680642313813,0.0032967090423774437,0.004578669753627196,0.00924063838982292,-1.9084726918813528,-7.971561238520252,-28.58103077735488,-0.0008020566644265327,0.008668663288762958,0.14029388134410797
11156,1724820615387060263,0.4468126595020294,0.077137753367424,0.1110289990901947,0.0750028192996978,-0.0214525815099477,0.4094910621643066,-0.9089727997779846,0.0,0.0,0.0,-0.12623358391673783,-0.19708872448860026,-0.5768271869902769,0.680103056,0.1110289990901947,-0.1058677486729902,-0.0413213628219834,-6.0172555309362356e-05,0.3892718870829046,2.217710608571921,0.04512402305996144,-0.15457385273292204,-0.02242822240497932,-0.844800279057558,0.000919904170057606,0.0025721103343698815,0.003006379241054624,4.201999322583416,-8.949756092783042,-1.5260018876814918,-0.0013371035444648795,0.0036148435696792404,0.14029388134410797
11158,1724820615396885007,0.446820467710495,0.0771596878767013,0.111020416021347,0.074817806482315,-0.0214968584477901,0.4094355404376983,-0.909011960029602,0.0,0.0,0.0,-0.06517218993174835,-0.2767863123677343,-0.3756387072970336,0.6899278,0.111020416021347,0.030898851555817716,0.022596670761604227,0.015021950704568271,8.920043967410663,0.6112080713347257,0.12388910473963193,-0.15427275694778378,-0.022186155252400412,-0.84468849833172,0.0005198192092308318,0.0005355927734811416,-0.0026544432728057288,3.542456241943897,-2.360875095197411,24.95935140955786,-0.0011608568385171375,0.002094557957262986,0.14029388134410797
11160,1724820615406214052,0.4468228816986084,0.0771496519446373,0.1109798774123191,0.0745670795440673,-0.0212633870542049,0.4094185829162597,-0.9090456962585448,0.0,0.0,0.0,-0.055799350473001705,-0.24786617328999255,-0.10309201893476114,0.699256845,0.1109798774123191,0.06981739481126885,-0.02391792881812611,0.003676566012016736,-1.3890041125141677,-3.0063034358414935,-0.5074667159577588,-0.15362294757693626,-0.022401388637989506,-0.8446203810128597,-0.0003047620067597734,-0.002662230618611261,-0.004382326133338665,2.8914910817017256,6.8737997237464885,24.660481751369545,0.0008786164767985761,-0.0010588859197531303,0.14029388134410797
11162,1724820615416698213,0.4468130469322204,0.0771030485630035,0.1109334975481033,0.0746841579675674,-0.0211350172758102,0.4093729257583618,-0.9090596437454224,0.0,0.0,0.0,-0.0032536830891378276,-0.13133622548199328,0.10179144882949849,0.709741006,0.1109334975481033,-0.010263762012927611,-0.03211113765908146,0.006705955754006992,-3.139046099265173,0.4265596225169221,0.8390732674539744,-0.1537332861539972,-0.022723317436504006,-0.8444993431404653,-0.0005057949926445815,-0.0041425791944935675,-0.004495556850308446,7.7383954869357945,7.555822845187727,10.491356937048447,0.0025991632220539623,-0.004357724775178624,0.14029388134410797
11164,1724820615429024428,0.4468130767345428,0.0770563706755638,0.1108770444989204,0.0746134519577026,-0.0210531782358884,0.4092305302619934,-0.909131407737732,0.0,0.0,0.0,0.13164344645992324,-0.08977874772080469,0.09994625923561337,0.722067221,0.1108770444989204,0.016246474593329008,-0.00934639924918037,0.0250209050629217,-9.05113469291395,-4.313511997538269,-0.2976504855341411,-0.15354035252160078,-0.02278996661880373,-0.8441767790252861,-0.00031517131681368937,-0.005618533434391004,-0.0016091853365658437,7.975373961791088,9.907173957634953,-13.121224740190513,0.0027269098647341775,-0.003259278407195298,0.14029388134410797
11166,1724820615436653537,0.44680917263031,0.0770048573613166,0.1108787953853607,0.0750902220606803,-0.0209748409688472,0.4091520011425018,-0.9091293215751648,0.0,0.0,0.0,0.17847122302357463,0.016665176845393703,-0.061407411703650494,0.72969633,0.1108787953853607,-0.10569979191454597,-0.07134336663697816,0.01432854811009323,-2.8186121112481857,-1.5581375947001335,0.025080819816260203,-0.1543511656802562,-0.023311054532007176,-0.8439852631779258,0.0012377357757173968,-0.00616198580803351,-0.0014804548250380023,-0.8521667069715355,9.473036295934472,-16.3251789106747,0.004709930806499917,-0.005319092259198579,0.14029388134410797
11168,1724820615446375339,0.4468428790569305,0.076952263712883,0.1108432188630104,0.0749645307660102,-0.0209043119102716,0.4090106785297394,-0.90920490026474,0.0,0.0,0.0,0.08358825157344381,0.05326817545557358,-0.1603483575947981,0.739418132,0.1108432188630104,0.030002204974243128,-0.005120529671907105,0.03224587692571032,8.666182232598445,3.973616179485837,0.22398693077986798,-0.15406688912570624,-0.023312092987319396,-0.8436677538274522,0.0026621053502520198,-0.0049110281155773094,-0.0030472320300467537,-7.635551094095615,-2.0515362136779633,-3.609188905645801,0.006259283435664208,-0.002066093220680638,0.14029388134410797
11170,1724820615459394032,0.4468635022640228,0.0768970251083374,0.1108142212033271,0.0746719986200332,-0.0207561086863279,0.4089751243591308,-0.9092484712600708,0.0,0.0,0.0,0.021216970455786743,-0.07484426840923464,-0.09283055931642481,0.752436825,0.1108142212033271,0.05055982279337009,-0.002868866993009341,0.006936522212946874,-6.55170899284769,-0.09434286355043014,4.3402972637260095,-0.15341091232313944,-0.023335177387166322,-0.8435729196904291,0.00265330934907837,-0.005532169945648313,-0.005120587399336074,-7.508532112870699,-0.09517935706304259,17.70948025053803,0.004169636127783735,-0.0023097497543831396,0.14029388134410797
11172,1724820615466446925,0.4468863010406494,0.0768530815839767,0.110767051577568,0.0747597143054008,-0.0207962393760681,0.4087745249271393,-0.909330427646637,0.0,0.0,0.0,-0.04212373303098423,-0.038278945510469564,0.07992280624058527,0.759489718,0.110767051577568,-0.026715738656863112,-0.004555583421025232,0.061560228624416645,-1.6143268884654085,0.393241313908204,1.8806954510479703,-0.15360942321459084,-0.02330053521808053,-0.84313865172662,0.002886600157143704,-0.006163710388447541,-0.005521490747921298,-8.63290371695979,7.772837703148248,20.184456110211418,0.0066449491359362395,-0.0031248319579595765,0.14029388134410797
11174,1724820615476400083,0.4469101727008819,0.0767926722764968,0.1107284799218177,0.0743429437279701,-0.0206528436392545,0.4087961614131927,-0.9093581438064576,0.0,0.0,0.0,-0.12316165249043738,0.07544207976403366,0.22029016700683896,0.769442876,0.1107284799218177,0.08843840343561736,0.008241049470960281,-0.0020893908598378793,4.484992149654581,-0.7711210576054375,-2.987086636629544,-0.15272841415883875,-0.023222644174401938,-0.8431717361403951,0.0014110575086103694,-0.005824642363307486,-0.0028049942487440305,13.78662128998154,-38.19813162492947,-20.948685399958393,0.006035865382089675,-0.003280209821901422,0.14029388134410797
11176,1724820615489818588,0.4469112455844879,0.0767189413309097,0.1107102036476135,0.074323259294033,-0.0203665867447853,0.4086605310440063,-0.9094271659851074,0.0,0.0,0.0,0.4585297315209099,-1.3348316402672122,-0.6949040261713058,0.782861381,0.1107102036476135,0.020456985197649526,-0.039314630406406405,0.019477272884051197,-3.547341687391924,-2.0070381488841984,0.8004211648697908,-0.15246185541349752,-0.023704330525404046,-0.8428331325457727,0.00021224598761726554,-0.004063820796131212,-0.0008012690379630705,-1317.2946276043529,1903.8847023291455,2.6219520607725073,0.004121728933658075,-0.004147566708442143,0.14029388134410797
11178,1724820615520320506,0.4469268918037414,0.0766941979527473,0.1107246428728103,0.074045717716217,-0.0203271228820085,0.4088399112224579,-0.9093700647354126,0.0,0.0,0.0,-134.0612627505858,196.02944517649462,4.295753447772256,0.813363299,0.1107246428728103,0.017568769587099235,0.006034102954677268,-0.012048340214718076,-2512.813303887588,-2582.959718140058,1570.8306431619005,-0.15191672567727474,-0.023578119773860765,-0.8432243968260983,0.05218463601499934,-0.1464271198679512,-0.08053151286145521,3056.4536436409107,16348.197040190105,20219.209865586552,0.0009578473318025579,-0.00021353522336878993,0.14029388134410797
11180,1724820615520578198,0.4469404518604278,0.0766561478376388,0.1107037141919136,0.0741541758179664,-0.0202864352613687,0.4087854921817779,-0.9093866348266602,0.0,0.0,0.0,-133.25738356671332,200.26374920606395,9.549744738454734,0.813620991,0.1107037141919136,-0.6354335099786358,-0.6652005037896926,0.3961642266456422,-102.79670862053058,-1203.2597195197511,1443.915277263024,-0.15208348304095673,-0.023732103969458494,-0.8430975423578853,0.01734254923348999,-0.09547496675337186,-0.07940948859267394,14240.314686123631,-17.384580779995304,19876.3578891821,0.1432897663840978,-0.08226634092325104,0.14029388134410797
11182,1724820615520988634,0.4469245076179504,0.0766510739922523,0.1106723025441169,0.0740006640553474,-0.0201782807707786,0.408618152141571,-0.9094767570495604,0.0,0.0,0.0,-120.14279998489197,189.5035978413045,17.372825154964275,0.814031427,0.1106723025441169,0.9117218672422045,-0.24285437049669717,0.8971510910535728,3484.255461611013,957.9186501092215,1118.9575031477377,-0.151718287770102,-0.023774914208658265,-0.8427183812793871,-0.03607575702858945,-0.011619896515762562,-0.07209346598612809,31370.192205689575,-26944.621032261835,17539.115338240852,-0.018437197873598248,-0.042431613846231925,0.14029388134410797
11184,1724820615526194993,0.446919709444046,0.0766395926475524,0.1105901151895523,0.0734485611319542,-0.0200710520148277,0.4086178839206695,-0.9095239639282228,0.0,0.0,0.0,4.704202316910191,1.1262904087954269,8.21750383532887,0.819237786,0.1105901151895523,0.21106048221825435,0.048826757028251115,0.008735093703469988,-97.88308447110927,37.37179191302815,-119.43931488956257,-0.15061957799725248,-0.023516753224554644,-0.8427116480038702,-0.0006731140367524091,-0.0026678734138863014,-0.011507154339267078,16528.856732277447,-25158.68359185544,-1432.0740517183754,0.0006613570683548794,-0.0037696510159945947,0.14029388134410797
11186,1724820615538029543,0.4469184279441833,0.0765955746173858,0.1105690374970436,0.073263444006443,-0.0199055634438991,0.4087654948234558,-0.9094762802124025,0.0,0.0,0.0,-0.12018451265861496,-0.07224852652975161,0.050440661813613286,0.831072336,0.1105690374970436,0.03979035235698832,-0.010659430591683422,-0.02740779741363195,-4.122355179289922,-3.0325036536857803,-0.2667278474545658,-0.15014157374929635,-0.023690076117964778,-0.8430136384525819,-0.0013770839482631914,-0.00529509186694721,-0.0062443095368234225,-164.6712981246995,-28.9078212983844,-288.13557243080527,0.0026621522620696096,-0.002997830165031227,0.14029388134410797
11188,1724820615546316825,0.4468996524810791,0.0765425488352775,0.1104913875460624,0.0730580165982246,-0.0196989476680755,0.4088141918182373,-0.9094753861427308,0.0,0.0,0.0,-0.0747759836369969,0.10814769335567542,-0.004693819219803469,0.839359618,0.1104913875460624,0.06568923162475558,-0.024219039378056195,-0.013442878260590508,0.9141532740937384,-1.5622806425041573,1.8728809808590292,-0.14959527183820343,-0.023905168680136098,-0.8430938094086989,-0.002725346389137684,-0.005024813455328125,-0.008114295416165263,13.860281640572154,12.861729759762717,9.449885428719295,0.003045893814335972,-0.007141514350885045,0.14029388134410797
11190,1724820615556775156,0.4468650817871094,0.0765081271529197,0.110423095524311,0.0729226469993591,-0.0194155108183622,0.4087627828121185,-0.9095154404640198,0.0,0.0,0.0,0.18079273812785024,0.12511586680505923,0.306663022682544,0.849817949,0.110423095524311,0.04606890158584249,-0.03958235653172671,0.008622657907980164,-2.4748430139809807,-0.776087856006672,1.1297609158727575,-0.14911709980907792,-0.024301106227874996,-0.8429429771818366,-0.0023470698830347914,-0.0028968602274739297,-0.0052472374712468905,14.908781330434039,-4.5565298937441,10.092397424486805,9.947810162608028e-05,-0.005256292800433275,0.14029388134410797
11192,1724820615571310724,0.4468503296375274,0.0764739885926246,0.1103727370500564,0.0730446502566337,-0.0191805530339479,0.4087082743644714,-0.9095351099967957,0.0,0.0,0.0,0.2050109719179929,-0.0659458281341595,0.05580436074069921,0.864353517,0.1103727370500564,-0.002001408329873026,-0.03686473319107791,0.0052442324360173305,4.06202713868646,-3.918929711730317,-6.392525642236291,-0.149149993200315,-0.02481968123285212,-0.8427879020999313,0.0032025752462132573,-0.002661160184420197,-0.00013269656916570227,-12.47353663774047,-2.962358776449289,-22.71282800562755,0.0009916395608957345,-0.0027423747187039667,0.14029388134410797
11194,1724820615576582114,0.4468752741813659,0.0764593631029129,0.1103784069418907,0.0730367973446846,-0.0189800076186656,0.4087938070297241,-0.9095014929771424,0.0,0.0,0.0,0.11222737363776206,-0.06209658406389425,-0.07435126991169817,0.869624907,0.1103784069418907,0.03349859908826029,-0.06537215027136423,-0.04022948888868826,2.205743296686127,-1.364966771797673,-3.54862400570829,-0.14896943973776994,-0.02519195487757294,-0.8429464685863023,0.003945306145379135,-0.0031658534577632125,-0.0004045050530501193,-10.51966429443597,3.730143472088361,-11.66367696362065,0.005244979046492344,0.0011930225634054134,0.14029388134410797
11196,1724820615588326891,0.4469010233879089,0.0764119401574134,0.110334925353527,0.0732882097363472,-0.0192740205675363,0.4085254073143005,-0.9095956683158876,0.0,0.0,0.0,0.1739872875156525,0.060214159318775745,0.1295543334806446,0.881369684,0.110334925353527,-0.05910143407027068,0.024391928933289345,0.05096907198843936,-3.326972835946817,1.5492166612607023,2.838432768566741,-0.14967730965691406,-0.024819608350806772,-0.8423969426687331,0.004513136397875428,-0.00301474390606149,-0.0018740601553943748,-2.4434608566373797,10.89716708676881,8.522392759510076,0.00437933433942492,-0.0018819450313187214,0.14029388134410797
11198,1724820615597323294,0.4469576179981231,0.0763918682932853,0.1103306636214256,0.073527030646801,-0.0193789564073085,0.4083450734615326,-0.9096551537513732,0.0,0.0,0.0,0.09892939709548798,0.16157868002191994,0.14531420128037895,0.890366087,0.1103306636214256,-0.05762649797969108,-0.003663262559861203,0.04255472410104217,-9.492654867405406,-2.386994759833555,-5.708177088271943,-0.15020525981405095,-0.02479500687334918,-0.8420133787233222,0.006944201623774404,-0.002146749532926151,0.0010464957444131784,-15.784016294099708,14.705736316896505,-4.942794860361274,0.005840261377532107,0.0024918632297939182,0.14029388134410797
11200,1724820615606390155,0.4470265507698059,0.0763731747865676,0.1103540435433387,0.0745225697755813,-0.0197139084339141,0.4085360467433929,-0.909481167793274,0.0,0.0,0.0,-0.11217621592919574,0.32633419502433114,0.03932425581512899,0.899432948,0.1103540435433387,-0.23193586338990974,-0.018621504568962454,-0.05281444600667044,8.249729963401279,1.7501984787099192,-0.8513747736227688,-0.15229702485645502,-0.02503406991615406,-0.8424614586067539,0.006275891208456841,-8.68965208766781e-05,0.0007254203686875016,-13.489867743422552,4.283291115412991,-4.106993511410977,0.006661701582126913,0.0037824281117078387,0.14029388134410797
11202,1724820615617136985,0.4470770955085754,0.0763973966240882,0.1103382334113121,0.0734104290604591,-0.0194972157478332,0.4082761406898498,-0.9096930623054504,0.0,0.0,0.0,-0.13240122556738093,0.19546109467203926,0.09177766817865574,0.910179778,0.1103382334113121,0.20669629446027082,0.04349664374858875,0.06117568656604571,5.062693697576979,1.8823677567917363,-0.6423867958329428,-0.1500900668420189,-0.024472932359202223,-0.8418818621004612,0.00458035583259786,0.004683134009229484,0.0021000270595292747,2.611067145981834,-24.83728788231981,-7.572881682329395,0.0014150475586377804,0.004659062283732699,0.14029388134410797
11204,1724820615626354107,0.44711834192276,0.0764597654342651,0.1103858202695846,0.0734796375036239,-0.0196668058633804,0.4084247946739197,-0.909617006778717,0.0,0.0,0.0,-0.07281670259338477,-0.1335421491218045,-0.07647097751576963,0.9193969,0.1103858202695846,-0.02926791432845941,0.030034194889911714,-0.03367229895112847,-13.450757205812037,-2.2528641940696756,-4.294336612228966,-0.15035132368567236,-0.024245664963946284,-0.8422301454951617,0.0035605475225324312,0.004521133601610661,0.0026603363617674347,7.693122906043263,-23.16025309797121,-13.642930438611966,-0.0019435651365045774,0.008481354688572421,0.14029388134410797
11206,1724820615637410728,0.4471455812454223,0.076479971408844,0.110382042825222,0.0735766589641571,-0.0196771025657653,0.4084289669990539,-0.9096071124076844,0.0,0.0,0.0,0.02853812773254341,-0.22336775008394588,-0.16615898936146564,0.930453521,0.110382042825222,-0.016841090522912012,-0.005382972407490258,-0.0016257821675284422,5.478994053356364,2.393865492032921,0.4331930542372404,-0.15053732641521794,-0.024307206283192453,-0.8422390607176143,0.003257137489665496,0.0015065226124635345,-5.69970224884031e-06,3.3174434656125213,-0.7490636215449324,-0.9161750834337683,0.0002683152402916558,0.002959592817616473,0.14029388134410797
11208,1724820615647997825,0.4471881091594696,0.0764926671981811,0.11038538813591,0.0730023086071014,-0.0198533870279788,0.408573716878891,-0.9095845222473145,0.0,0.0,0.0,0.004361390105815932,-0.1565331787633626,-0.1029138893442636,0.941040618,0.11038538813591,0.08531510360174561,0.07670197885418766,-0.022030595061670724,-3.560220640117296,3.216420145047586,-0.4260129962592406,-0.1496256555654532,-0.023539155775872678,-0.8425911563051675,0.004126767324844849,-0.0003586727086934971,-0.0010048646093965274,37.4504410555431,-26.958213892934435,-34.71863446909981,0.001785325497108599,0.003590759613797136,0.14029388134410797
11210,1724820615656087749,0.4472221732139587,0.0764801353216171,0.1103690937161445,0.0729726999998092,-0.0201649107038974,0.4086533188819885,-0.9095442891120912,0.0,0.0,0.0,0.5529588585442735,-0.5802966343683149,-0.6353357226808055,0.949130542,0.1103690937161445,-0.02514377085017018,0.07467667351706651,-0.01619623939347212,-11.14298710946692,-0.4601518343108357,0.6881529820578733,-0.14982395955274555,-0.022961330912392906,-0.8428108977160796,0.003681238783618257,-0.0015035853583415526,-0.0018902110454204202,33.95569685627582,-25.393342808483595,-33.272885728132934,0.003910766254606243,0.0014599121753866458,0.14029388134410797
11212,1724820615695363317,0.4472658038139343,0.0764297544956207,0.1103184893727302,0.072552241384983,-0.0203396379947662,0.4086024761199951,-0.9095969796180724,0.0,0.0,0.0,-4.569146319193862,3.5684382482488672,4.2625276541357096,0.98840611,0.1103184893727302,0.01598156764228745,0.016599193931292753,0.0045323202738962575,-5077.179624333696,4452.5633814169405,-1765.2193751301832,-0.149198088449574,-0.022290150150068824,-0.8427321056588919,0.1413371043419147,-0.10795947373844683,-0.12712045832324748,-71.30478904438132,-115.20733484284119,-361.0858674856081,0.0016676005880988303,-0.0003347578691692181,0.14029388134410797
11214,1724820615695920782,0.4473457038402557,0.0763687267899513,0.1102466285228729,0.0729929581284523,-0.0212870948016643,0.4088891744613647,-0.9094111919403076,0.0,0.0,0.0,-4.6084285385671215,3.5024668084763646,4.05739110876674,0.988963575,0.1102466285228729,-2.854549749342192,2.533989967446793,-0.9934871412664491,-4970.647174979754,4359.246054285187,-1728.3013040532767,-0.150772986323197,-0.020976154482406403,-0.8434909833344884,0.13872607965874473,-0.10592051243282063,-0.12468529220219102,591.1259337419302,176.76591455958362,13.842278000912131,0.1743232057287038,0.0015110153459270634,0.14029388134410797
11216,1724820615711992719,0.4474432170391083,0.076312743127346,0.1101986244320869,0.0726579427719116,-0.0216530207544565,0.4093040823936462,-0.9092426300048828,0.0,0.0,0.0,311.44746728885787,143.0846649899899,181.20163263470363,1.005035512,0.1101986244320869,0.018861684705798548,0.06267257775910653,-0.05131970669846506,7714.0185978777445,1548.235032546977,3849.337137360298,-0.15044996101767838,-0.020104040335534777,-0.8444576685457538,0.09955901156195068,-0.12149280121522565,-0.20353115248849463,-80043.5558231658,20439.83260614093,41538.32519934297,0.006572297738904134,0.0011517206364512515,0.14029388134410797
11218,1724820615712389719,0.4474836587905884,0.076263353228569,0.1101158559322357,0.0720255598425865,-0.0215437579900026,0.4090542793273926,-0.909407913684845,0.0,0.0,0.0,278.692385701733,151.31455354227504,197.99160562255568,1.005432512,0.1101158559322357,3.15522113126482,0.6940125110854064,1.5140406796569987,-4951.17721234264,3154.455513671743,-1612.7240989184374,-0.14920835366052376,-0.019741881283870593,-0.8439043081100953,0.2262817551639955,-0.06327553184887336,-0.12976904691484492,-130325.92617004266,-2359.891459063627,12554.814496611012,0.1565126738501581,-0.04494334557780035,0.14029388134410797
11220,1724820615712748122,0.4476050138473511,0.0762604549527168,0.11009481549263,0.0723106637597084,-0.0221160557121038,0.4092139899730682,-0.9092997908592224,0.0,0.0,0.0,216.51080356549923,142.99776751676657,192.8695307968453,1.005790915,0.11009481549263,-2.7774512505560978,2.330682057723027,-0.8615573840203679,-15154.26392828631,4147.715171050367,-6071.072788702817,-0.15019550674424723,-0.018961957095362615,-0.8443344369974956,0.31305908075480104,-0.007532419893245601,-0.054863161328039034,-164836.08508268418,-24171.791090287184,-16846.78650018586,0.2297979205991401,0.2130394782267301,0.14029388134410797
11222,1724820615716787895,0.4477067291736603,0.0762552618980407,0.1100481674075126,0.0728553980588913,-0.0223906747996807,0.4092295169830322,-0.9092425107955932,0.0,0.0,0.0,-55.05100720370965,1.3323379548195369,8.452893207474,1.009830688,0.1100481674075126,-0.3027414263498296,0.014450198231895282,-0.014727558158284823,473.14844369400845,-437.2224929930386,160.6395929809664,-0.15141720942460837,-0.018913179514856923,-0.8444019211007701,0.021506491308755926,-0.0005931858616559094,-0.010166414462556617,-50180.52110268975,-26732.888522615223,-34926.01003546372,0.017462451157526437,0.014608859727958562,0.14029388134410797
11224,1724820615729698533,0.4478328824043274,0.0762761682271957,0.1099738851189613,0.0725765451788902,-0.0221913885325193,0.4090070426464081,-0.9093698859214784,0.0,0.0,0.0,0.2347432357718391,0.09411000695047675,0.027258072729651417,1.022741326,0.1099738851189613,0.05257638399947975,-0.013344838249301801,0.03812877558688522,-2.8898224050490953,-0.5691520729226371,0.8738331406131139,-0.15074816096058247,-0.019009420148871574,-0.8438893660678237,0.017129692381715245,0.0007065872653297944,-0.008777857434472125,1600.221799746733,-23.379800401793,-248.31136505078956,0.005173282700899775,0.007117986688318063,0.14029388134410797
11226,1724820615737272023,0.4479953050613403,0.0762774646282196,0.1098939701914787,0.0729499906301498,-0.0223249047994613,0.4088904857635498,-0.9093891382217408,0.0,0.0,0.0,0.43891643077443665,0.2392605410394696,-0.057150544856356955,1.030314816,0.1098939701914787,-0.10441644064515164,-0.010619325653477615,0.030440529250831138,-6.852718978773496,2.6148318965842563,0.6048361477757114,-0.15154352248995384,-0.01905421529703531,-0.8436492804438013,0.02145650374511021,0.0013901641827200883,-0.008928135683330396,-0.5662250338398058,13.371834437012875,-8.409219479002111,0.013924682114041177,0.013322380988868655,0.14029388134410797
11228,1724820615746603127,0.4481956362724304,0.0763044506311416,0.1098293289542198,0.0729059875011444,-0.0225288178771734,0.4086709022521972,-0.9094862341880798,0.0,0.0,0.0,0.1171867920049181,0.2974257421828793,-0.10416248526399274,1.03964592,0.1098293289542198,-0.008826647090373651,0.039704310552374035,0.05470870323019196,10.837161739412625,5.559606672415249,4.655122310095782,-0.15163430726211272,-0.018610886261323088,-0.8432003674892793,0.024029999458033302,0.005335740639091924,-0.009890327671306487,-16.5602778987446,1.8613046317628523,9.218190595942824,0.011987917829133705,0.015719822015491724,0.14029388134410797
11230,1724820615757126592,0.4484789073467254,0.0763896033167839,0.1096900850534439,0.0721381455659866,-0.0228159967809915,0.4081095457077026,-0.909792423248291,0.0,0.0,0.0,0.15558127118466403,0.2651233704935533,0.16204233847673288,1.050169385,0.1096900850534439,0.11225510319440729,0.10018669428932168,0.1280780126837524,1.5105616160171031,-3.0196735692081726,0.9139010998429362,-0.15047414000349135,-0.017365762448004942,-0.8420264952036008,0.023380787827363747,0.006977233957196738,-0.01099889036191648,7.7542007583574,2.9203204085826773,19.035791472498936,0.011658216455326656,0.022577191450660943,0.14029388134410797
11232,1724820615767684939,0.4486882984638214,0.0764514654874801,0.1095976084470748,0.0720750018954277,-0.0226779133081436,0.4077495336532593,-0.9099621772766112,0.0,0.0,0.0,0.2809463019661622,0.3594099583647933,0.29670900921726323,1.060727732,0.1095976084470748,0.022320259668366475,-0.024568518541657883,0.07355205865274253,-16.511011812029277,3.4474903766091547,-8.081088049699213,-0.15025251211831042,-0.017505904201751733,-0.8412195424024599,0.027325117529038323,0.01093264830304097,-0.006455496839806507,4.284208719301155,-3.7622898225249877,-44.91235268792285,0.008696611783963809,0.016669368106831152,0.14029388134410797
11234,1724820615776497908,0.4489842355251312,0.0765851363539695,0.1095576584339141,0.0725944265723228,-0.023472337052226,0.4078453481197357,-0.9098578095436096,0.0,0.0,0.0,0.2628748487878292,0.2328866791951677,-0.5233063686710923,1.069540701,0.1095576584339141,-0.18198910117142902,0.11809256570119864,-0.01912291077424061,-5.5621434336928015,5.661741574727787,-3.1628820900801187,-0.15185088367932345,-0.016502369003295974,-0.8415428262871777,0.02911970448447576,0.013988197975360883,-0.004823415645713425,-2.5101137206307857,-12.035129459119005,-58.16132013387153,0.010988308499468705,0.03311459268645433,0.14029388134410797
11236,1724820615787744283,0.4492477178573608,0.0767255276441574,0.1094992458820343,0.0724746137857437,-0.0236310344189405,0.4075988829135895,-0.909973680973053,0.0,0.0,0.0,0.22804968697507588,0.13085049816016536,-0.6767501729613039,1.080787076,0.1094992458820343,0.0083431545480324,0.030702400116288442,0.050832156408857194,35.31289477279066,8.315801076106778,14.533251881715959,-0.15176540556541007,-0.01607459673720945,-0.8410298587982705,0.0329263536064488,0.014973764060274952,-0.020876843820330393,-29.590589485054338,-10.270839368365719,63.13255109755832,0.006231035303930653,0.02430464450380641,0.14029388134410797
11238,1724820615796611557,0.4496060907840729,0.0768757164478302,0.1092044785618782,0.0702418163418769,-0.0237692091614007,0.4067550003528595,-0.9105225801467896,0.0,0.0,0.0,-0.21956999401643995,0.03140015391503992,0.41984233884936717,1.08965435,0.1092044785618782,0.4500383039871685,0.21690770014999192,0.2378226012830763,5.521634058648247,3.938875967091385,5.506950552752588,-0.14780169198118143,-0.013858060314013125,-0.8392314026037069,0.034176478722216075,0.016436196790658553,-0.021629417844775567,-31.546912330784256,-12.457012326150373,71.77199548760323,0.013933102347515797,0.03614709786466407,0.14029388134410797
11240,1724820615807203510,0.4498891532421112,0.0770434662699699,0.1091223061084747,0.0703871697187423,-0.0241240058094263,0.4062868654727936,-0.9107111692428588,0.0,0.0,0.0,-0.31417089217851824,-0.11625245904348525,0.5234633815325147,1.100246303,0.1091223061084747,-0.0518399576847122,0.04278000262853809,0.0990230154655717,-12.82376374454521,-11.511746740534962,-3.9915438697529595,-0.14836397817460775,-0.013255150183386629,-0.8382610118543666,0.027289071949017085,0.01507942205811208,-0.01079679406275691,0.0654082807594687,-10.386349122673353,-12.532813356285233,0.005993816648209605,0.028752141586918873,0.14029388134410797
11242,1724820615816479830,0.45014688372612,0.0771771892905235,0.1089974641799926,0.0699525997042656,-0.0238599255681037,0.405716598033905,-0.9110057353973388,0.0,0.0,0.0,-0.24047320498115576,-0.1837287283523541,0.22590906308280778,1.109522623,0.1089974641799926,0.10996529709676775,-0.023972084396978212,0.13602872570543542,2.1480173564884746,-5.461720018850033,-0.334936971775571,-0.14736089010247988,-0.01328919462169951,-0.8369799852259391,0.027105055186769533,0.014097235924299234,-0.009997008786722716,446.1174822549811,260.94636416822544,-54.43358406354905,0.007722128054259945,0.02786449231060147,0.14029388134410797
11244,1724820615826447909,0.4504097998142242,0.0773143023252487,0.1089348867535591,0.0702106654644012,-0.0236839596182107,0.4052996337413788,-0.9111760258674622,0.0,0.0,0.0,8.899915540307704,5.290427722899865,-0.5561625979482918,1.119490702,0.1089348867535591,-0.032452302379838927,-0.05983869229900133,0.08637167235138711,-6.521557840339461,-1.6958668829855092,-3.796183333028006,-0.14769706931411675,-0.013752635104744207,-0.8360405691742699,0.022344674060899905,0.011431953511367832,-0.006248838602962659,61.61402388349467,38.71902481179359,-8.551878331885021,0.007389163432824132,0.02716641920555881,0.14029388134410797
11246,1724820615846027381,0.4506922662258148,0.0774487853050232,0.1088136509060859,0.0690405145287513,-0.0229965653270483,0.4048035740852356,-0.9115036129951476,0.0,0.0,0.0,-22.78912442187675,-13.582516879410832,1.964854227511566,1.139070174,0.1088136509060859,0.1385191170653285,-0.019884365794511704,0.05763383260133121,-4292.819410502382,272.81827523216054,-554.0536498298059,-0.14500122949739386,-0.013973244023493836,-0.8348674490066722,0.5572425168246582,0.3287598348652807,-0.05298829575198738,-5188.71690332135,-3053.345956106321,468.35991473011563,0.004506266759408227,0.014124551981775105,0.14029388134410797
11248,1724820615846541609,0.4509861469268799,0.077622190117836,0.1087857708334922,0.0695274695754051,-0.0232428535819053,0.4048480987548828,-0.9114404320716858,0.0,0.0,0.0,-25.50552571097725,-15.180851661851008,2.2102844990811166,1.139584402,0.1087857708334922,-2.127063400679709,0.12406341611735619,-0.23473901299092165,-4175.157464655438,265.40704450604454,-538.9262644040354,-0.1460931918851018,-0.013927624987958806,-0.8349959536699745,0.5448469716829534,0.3213729999119901,-0.051919136505434005,-5039.611039319303,-2964.2170676837236,455.52071164244967,0.13283637508271323,0.6259629455144792,0.14029388134410797
11250,1724820615856389248,0.4513254463672638,0.0777995958924293,0.1087078973650932,0.0683924257755279,-0.0227515827864408,0.4046615958213806,-0.911621630191803,0.0,0.0,0.0,-29.33141472932429,-17.214135334812898,2.592771391661879,1.149432041,0.1087078973650932,0.2521778560943472,-0.0011012548507442553,0.047842710376755096,127.56808153942958,-8.391076452776371,14.666139084160193,-0.1436163681849313,-0.013870351075162308,-0.8345283016603545,0.029587832084338572,0.01800114653203977,-0.0054237452759253735,793.6853845698529,480.4738345061136,-66.23128260956243,0.009677990559995488,0.03560482157044534,0.14029388134410797
11252,1724820615869061649,0.4516210258007049,0.0780274868011474,0.108679674565792,0.0684339180588722,-0.0225165896117687,0.4046184122562408,-0.911643385887146,0.0,0.0,0.0,0.005032330147964448,0.07698365614525415,0.040011149314406746,1.162104442,0.108679674565792,0.0091179059767587,-0.03700381637988285,0.004916984251040981,80.78491441715082,2.345233479340514,5.413330580508683,-0.14350260317093022,-0.014325536532754585,-0.8343993528198435,0.03282405990825055,0.02151427511614301,-0.007280821662444481,822.6058380997455,524.009263005569,-27.00195252954103,0.002309564027526835,0.028660455277184138,0.14029388134410797
11254,1724820615876216553,0.4518942534923553,0.078195683658123,0.1086071655154228,0.0651942417025566,-0.0211036950349807,0.4044375717639923,-0.9119948744773864,0.0,0.0,0.0,-0.13806961598654433,0.43101096088884394,0.5515016359485634,1.169259346,0.1086071655154228,0.9909551583723418,0.0006951203996541868,0.07920087963850554,60.740989325486424,3.450054469794491,5.670863885440527,-0.13642042346761243,-0.014241559617581386,-0.8338389561635273,0.03184875311628055,0.021256164490163654,-0.006240915743744413,-9.024984621371553,40.191264096993976,55.866058734485144,0.008110266771014552,0.042013181292956746,0.14029388134410797
11256,1724820615889818061,0.4521635472774505,0.0784265771508216,0.1086229458451271,0.0661831274628639,-0.0215641167014837,0.4042004644870758,-0.9120179414749146,0.0,0.0,0.0,0.022966815329837242,0.7374886495585464,0.9074324584288509,1.182860854,0.1086229458451271,-0.1605072863806491,0.0005903487019906324,0.03451344948199138,-30.07384105032262,9.211946804623247,-9.099540749112927,-0.13861014216176618,-0.01416925319249128,-0.8333749348614528,0.029925379440456368,0.03919577847433864,0.011762226409567589,-13.399030386659014,-78.20067709004259,-29.485634698661507,0.0007633151087219486,0.02588596578097869,0.14029388134410797
11258,1724820615896317818,0.452389508485794,0.0787503570318222,0.1087323278188705,0.0666216686367988,-0.0220639370381832,0.4043330252170563,-0.911915361881256,0.0,0.0,0.0,-0.14251585007510692,-0.08367851394358161,0.5429190302668244,1.189360611,0.1087323278188705,-0.18644251292133304,0.08910237425814303,-0.04269007702342251,3.204855364412947,6.879688999828728,-6.040072840488601,-0.1398170535000604,-0.013634217803621616,-0.8337302191514105,0.03058521572591033,0.04218325440408588,0.016367640937534844,-21.82836877183571,-89.00441326488138,-48.85139501089897,-0.013287975561239439,0.06153581716551637,0.14029388134410797
11260,1724820615906235436,0.4526295959949493,0.0790532380342483,0.108887679874897,0.0667192116379737,-0.0224013812839984,0.4044106900691986,-0.9118654727935792,0.0,0.0,0.0,-0.3040474064599499,-0.4014287322705281,0.16783459813085233,1.199278229,0.108887679874897,-0.04577730576595791,0.05536725583039553,-0.014250732666013125,-9.269380759251092,-2.8701771248623142,-5.366311991020574,-0.14026813579180467,-0.013110208122443342,-0.8339467140330528,0.025478910709576752,0.03313163239478989,0.01924562647267436,-1.184486240431582,-6.746609660644086,-48.58290409283673,-0.0061445789198673,0.040183582545686054,0.14029388134410797
11262,1724820615916979803,0.452918142080307,0.0794393867254257,0.1091361492872238,0.0687219128012657,-0.0234005693346261,0.405191957950592,-0.9113447666168212,0.0,0.0,0.0,-0.1409762829314931,-0.1795128742742087,-0.4794383953322836,1.210022596,0.1091361492872238,-0.41836173282335576,0.030714036382625955,-0.16775089377569952,5.412061494677486,-6.915154532478208,-3.4503291355687513,-0.14473925683692898,-0.013039529520115042,-0.8357779737550469,0.024666120880819875,0.03476952972478653,0.01962469123769406,34.28006210261016,24.828494134939348,-29.65921095922463,-0.00834905027840151,0.04670931174267206,0.14029388134410797
11264,1724820615926168810,0.4531275928020477,0.0797496885061264,0.1092889681458473,0.0690872371196746,-0.0231747068464756,0.4056428372859955,-0.9111222624778748,0.0,0.0,0.0,0.324147797207628,0.08144160885009,-0.5116250916437257,1.219211603,0.1092889681458473,-0.05357680515064356,-0.069141977693984,-0.11429611701586398,30.512006497104416,-2.4670666845128313,6.727209801637496,-0.14521883632197563,-0.013819943012023878,-0.8367254505241097,0.02285728677547283,0.030511213818561256,0.011174056108592456,32.50543773776308,28.53836660316906,17.201581187732025,-0.00957161308193465,0.04175548769829299,0.14029388134410797
11266,1724820615938918065,0.4534201323986053,0.0800810605287551,0.1093349084258079,0.067960500717163,-0.0230007488280534,0.4057614803314209,-0.9111586213111876,0.0,0.0,0.0,0.41818622887363555,0.4477577089026745,0.07391908249163537,1.231960858,0.1093349084258079,0.17293887267445135,0.0479886303593142,-0.012433057887064685,-11.203188220399301,-3.0666673951332517,-16.5011533918459,-0.1430106935007836,-0.0132372321449685,-0.8369702643295267,0.03620576980687673,0.041187437336760446,0.011868664896940828,-50.852499402083374,-26.02406849649178,-11.464540478896346,-0.0038866392305808573,0.03485298929057571,0.14029388134410797
11268,1724820615946448793,0.4537517726421356,0.080458827316761,0.1094610542058944,0.0681652352213859,-0.0228978432714939,0.4065929651260376,-0.9107751250267028,0.0,0.0,0.0,-0.22378496648943547,0.008207314099186291,-0.26771232025704944,1.239491586,0.1094610542058944,-0.04029579191815124,-0.029614091984634053,-0.245640293808728,-9.532386040910662,-4.976064585442218,-11.583446772208706,-0.14328988357889086,-0.013721868687804832,-0.8387694683246546,0.03655789160138134,0.042826153730306515,0.012511789036294463,-51.48193044589635,-28.636152219591676,-26.89371809336461,-0.0076477621102622835,0.0680545398261731,0.14029388134410797
11270,1724820615957988232,0.4540413618087768,0.0808232799172401,0.1095304787158966,0.0671976879239082,-0.022494675591588,0.4068117141723633,-0.910759449005127,0.0,0.0,0.0,-0.22082398653099844,0.20347461209296025,-0.2514409195991232,1.251031025,0.1095304787158966,0.1818257325899328,0.007188019762577105,-0.03655848840998716,15.723318560182232,-14.609654808106951,11.17064229411602,-0.14118584402501522,-0.013699565044796799,-0.8391989501589289,0.029191786369658246,0.03921830076831334,0.0031787920733519215,30.541819115363396,26.339384986580534,46.386810972687016,-0.006652935393033666,0.040647379842574514,0.14029388134410797
11272,1724820615966200230,0.4543050229549408,0.0811899602413177,0.1095400005578994,0.0664726570248603,-0.0212029386311769,0.4067237973213196,-0.9108829498291016,0.0,0.0,0.0,0.2069733393518305,0.4748107016880818,0.3923332363018841,1.259243023,0.1095400005578994,0.29034195528000273,-0.2168038763634036,0.014568995861936516,-4.245210176960366,-9.598277855033217,-0.6625738408902002,-0.1388069146869355,-0.015445846551579444,-0.838832072875258,0.029818369358935115,0.04390550930960346,0.004371135659387626,23.595112544879388,-6.073857752162339,41.50191618180043,-0.01173748083241159,0.05452205835913199,0.14029388134410797
11274,1724820615976928720,0.4545928537845611,0.0816505402326583,0.1096319109201431,0.0666394680738449,-0.02081916667521,0.4071333408355713,-0.9106965661048888,0.0,0.0,0.0,0.06066636362101607,-0.13859777850775457,0.32049683621221114,1.269971513,0.1096319109201431,8.164270982744671e-05,-0.07200305473837255,-0.08908991413610771,2.4972815106322273,15.185442683385176,-11.68758556868051,-0.13879267323050085,-0.016343138863674667,-0.839671817205026,0.03387040345259251,0.047654453133644914,0.012044198171397902,410.9068837641026,611.5203348971679,93.22830181064018,-0.013902976585770095,0.05041702707683369,0.14029388134410797
11276,1724820615986409795,0.4549729824066162,0.0821419358253479,0.1097752377390861,0.0653230100870132,-0.0205986686050891,0.4081230163574219,-0.9103538990020752,0.0,0.0,0.0,7.513632549487246,11.262074502623973,2.0416357309776134,1.279452588,0.1097752377390861,0.2713690061835744,0.08611947417903937,-0.21687237312766733,14.41845204127508,9.416709823123115,-6.709749711978342,-0.13618524375831725,-0.015816150665800596,-0.8418207594119177,0.0317893475856863,0.04225129119624382,0.01177571761597429,-30.524812201996838,-17.006387056075482,-40.08048744047389,-0.011710070140522739,0.06644942710651547,0.14029388134410797
11278,1724820616006888977,0.4552566707134247,0.0825835317373275,0.109868586063385,0.0660822167992591,-0.0204244013875722,0.408593475818634,-0.910091996192932,0.0,0.0,0.0,-29.234523461150957,-43.02977096631503,-8.582339430943989,1.29993177,0.109868586063385,-0.06127605775330626,-0.04222511397894567,-0.05490409489723401,-1557.7360127365203,1006.6584514459205,588.0343302171726,-0.1374238802448402,-0.016826150800806197,-0.842816896455682,0.5277385856414867,0.796278202876266,0.14515146632319897,-5218.310597529038,-7863.939227450988,-1424.9243557676164,-0.006802721678535363,0.02560989729046623,0.14029388134410797
11280,1724820616007432155,0.4555507302284241,0.0830272138118743,0.109949454665184,0.0662528574466705,-0.0206607766449451,0.4085301458835602,-0.910102605819702,0.0,0.0,0.0,-32.11832282895996,-47.37639116983977,-9.369381910895864,1.300474948,0.109949454665184,-0.9296121853212694,0.5191627673292821,0.27286104826437524,-1498.4003674405403,969.25691744264,567.1621699676564,-0.13793060844382626,-0.01652647799746625,-0.8427086667452538,0.511088959344459,0.7717549987654362,0.1402722543438022,-4984.7364961341345,-7518.628461699915,-1357.0540189260662,-0.2469740343135523,0.9790221255502828,0.14029388134410797
11282,1724820616016189205,0.4557514786720276,0.083422340452671,0.1099625155329704,0.065969780087471,-0.0202559307217597,0.4080395996570587,-0.9103522896766664,0.0,0.0,0.0,-29.9728460714667,-44.94640310181091,-8.278061970937783,1.309231998,0.1099625155329704,0.09807604370826956,-0.06633842365006307,0.12046914894386337,64.05098809433275,-34.11171979120478,-15.23318202933395,-0.1370905787081277,-0.01695731215727198,-0.8415838649289508,0.02284648711393089,0.042222078918941364,0.003634126082610045,1517.255059216644,2211.52659335329,456.07239792480044,-0.018344750083569523,0.04880777424459157,0.14029388134410797
11284,1724820616026288824,0.4559813141822815,0.0838150009512901,0.1100241765379905,0.0654607862234115,-0.0198624357581138,0.4080797433853149,-0.9103797674179076,0.0,0.0,0.0,0.17010649395194133,-0.08312025239837673,0.18883826553636823,1.319331617,0.1100241765379905,0.12407420639066169,-0.02939471338682671,-0.008115466567141887,4.253326140620679,2.0472436958089277,-7.110333848514663,-0.1358367926922701,-0.01726257974846083,-0.841624765457539,0.020434124594240544,0.035118021661353804,0.0053523842849632075,1686.3768029356795,2521.4303428481817,472.1844117926333,-0.01372366697657658,0.04449290998095424,0.14029388134410797
11286,1724820616039277764,0.4562079310417175,0.0842083245515823,0.1100811213254928,0.0643142461776733,-0.0191343836486339,0.4081323146820068,-0.9104534983634948,0.0,0.0,0.0,0.38834978534943554,0.5834879300900386,0.20546493390218012,1.332320557,0.1100811213254928,0.20737040248897087,-0.029709469780670163,-0.006568284247374758,29.192842916482334,-1.5701399158414011,-7.849457600573793,-0.1331426942720483,-0.017656428637940254,-0.8416575554775083,0.029475295507161547,0.044400029870190316,0.008117695271320002,-26.57466987361248,-21.33966324500542,-2.8527058297635772,-0.010879600553630443,0.034434451908335224,0.14029388134410797
11288,1724820616046261069,0.4564589262008667,0.0845713913440704,0.1101518273353576,0.0628072917461395,-0.0182581879198551,0.4084447026252746,-0.9104366898536682,0.0,0.0,0.0,0.03991357535269213,0.161663671550081,0.1700272721669555,1.339303862,0.1101518273353576,0.49675964291411084,-0.046478293786043255,-0.091301186295932,11.114440329506303,1.6547455902423758,-8.024430103332218,-0.12966315810819318,-0.018061744875946206,-0.8422473238541979,0.031031946785240905,0.04798241580594542,0.00952461478594957,-28.092426014872405,-40.748758823862964,-7.512274962657527,-0.014677246375286642,0.06332963185821974,0.14029388134410797
11290,1724820616057712533,0.45672208070755,0.0850455909967422,0.1102496236562728,0.0624201707541942,-0.0183459855616092,0.4090204834938049,-0.910202980041504,0.0,0.0,0.0,0.12764522732315586,0.06413941870583661,0.03822532433812065,1.350755326,0.1102496236562728,0.054564675353970665,0.04863693715170263,-0.10602785859290169,-30.354309386356093,-1.1592032560654166,-5.413813649509393,-0.12901550716873172,-0.01766603426414458,-0.8435233333394592,0.02805260896109374,0.04323626371311384,0.010881247222942037,-10.450164239305392,-17.418852651772667,-23.170800127276998,-0.015501300804866194,0.046734805130400035,0.14029388134410797
11292,1724820616067904858,0.4570540189743042,0.085502840578556,0.1103817671537399,0.0633752942085266,-0.0184302404522895,0.4099091291427612,-0.909735381603241,0.0,0.0,0.0,-0.14316566767980898,-0.1941597681739604,-0.3037249985052344,1.360947651,0.1103817671537399,-0.17988097606371328,-0.04904239948435648,-0.19865315001628628,10.291587337220308,-1.6450396565841658,2.0350781792527908,-0.13081384825663508,-0.018423981952495585,-0.8454665587989341,0.03287173662830156,0.04823165504825244,0.010542919659170202,-21.833956624386122,-12.934962080019414,-19.982542728101578,-0.011723911739477672,0.05606356930007224,0.14029388134410797
11294,1724820616076178203,0.4573280215263366,0.0859245061874389,0.110452726483345,0.0629143640398979,-0.0181485116481781,0.4103195071220398,-0.9095879793167114,0.0,0.0,0.0,-0.2919993039745026,-0.2178501817015548,-0.37793441122248533,1.369220996,0.110452726483345,0.1288546272774129,-0.00933955790342528,-0.10711906792080593,20.966678485589046,1.973767762831083,8.936858562572166,-0.12973168854180012,-0.01861572079120222,-0.8463353302930431,0.027550529348339126,0.042029957575926424,0.006213304801575337,3.2588305192018545,17.129618977949534,7.129091529366211,-0.01605550979435236,0.06059843179302951,0.14029388134410797
11296,1724820616091386877,0.4575913548469543,0.0863138735294342,0.1104811429977417,0.0631654262542724,-0.0177598372101783,0.4105023741722107,-0.909495770931244,0.0,0.0,0.0,0.3516188117654355,0.6016293470781635,0.180574899169341,1.38442967,0.1104811429977417,-0.009384767608984596,-0.0583050056314362,-0.030663840980925013,30.812289973924972,-19.67759488922503,12.152565408833908,-0.12986779064291556,-0.019555367561131996,-0.8466830987134364,0.03292767004219144,0.05358324484957677,0.004530098278943129,-52.33704008655691,-110.28712848520811,19.317770977291467,-0.007669387117976968,0.030684873172040827,0.14029388134410797
11298,1724820616097181545,0.4578166306018829,0.0866861492395401,0.1105132699012756,0.0627328157424926,-0.0169141497462987,0.4103310108184814,-0.909619152545929,0.0,0.0,0.0,-0.16064179533842826,-0.3999064232292888,0.2540869990716059,1.390224338,0.1105132699012756,0.25725864179687075,-0.20866665922010755,0.05548810540915896,11.387727523865394,-11.52623274326962,5.282056436318279,-0.12838661749108124,-0.020713051330361096,-0.8462084403513284,0.03496090403281826,0.05672060170443949,0.006219498379203436,-65.41625399739465,-129.60765257624237,2.8758557613859903,-0.022216608624196953,0.07404037253608345,0.14029388134410797
11300,1724820616106317605,0.4580796360969543,0.0870959758758544,0.1105798184871673,0.0635058432817459,-0.0167205948382616,0.4104324281215668,-0.90952330827713,0.0,0.0,0.0,-0.42719628217058214,-0.9613184784667623,0.13905130935155696,1.399360398,0.1105798184871673,-0.13748514512596854,-0.10623290689636038,-0.03432471873484316,-20.83126082999955,9.73704227055071,-7.644583938796325,-0.12963873622026584,-0.02171588020232866,-0.8463945733751748,0.026125203377944217,0.03950795363607007,0.008001315545052456,-3.7376875384525903,-0.8296843884035772,-26.757095678319914,-0.014355285450521605,0.05306960538856249,0.14029388134410797
11302,1724820616118903413,0.4583622813224792,0.0875004529953002,0.1106929555535316,0.0636064857244491,-0.0166608151048421,0.4109576344490051,-0.9092801809310912,0.0,0.0,0.0,-0.03318279072460584,0.07928683833163186,-0.4433157843147331,1.411946206,0.1106929555535316,-0.011705144592726641,-0.009257900401832579,-0.09263670752441266,16.222802703619507,1.8090281863658264,0.7147996054826704,-0.1297611196807683,-0.021982214195094975,-0.8475358876692689,0.03010994740188977,0.043407183338611155,0.008780798957696234,-18.965699958911483,-11.202450112683138,-38.45612829457416,-0.009029090110747144,0.03955172301096379,0.14029388134410797
11304,1724820616126098845,0.4586104154586792,0.087859146296978,0.1107552796602249,0.0632133111357688,-0.0163856111466884,0.4111749827861786,-0.9092143774032592,0.0,0.0,0.0,-0.3764526149655042,-0.38752739034198136,-0.6878732028691327,1.419141638,0.1107552796602249,0.13064919467571284,-0.02049586505919747,-0.06549353673166312,15.42422450634022,1.8413071874607305,6.517194526168712,-0.12881114830945864,-0.022189218569702417,-0.8479843564364193,0.028432256093186226,0.043029376492787375,0.003512506174700558,-31.76363571972801,-46.85651549141261,-8.480817254760103,-0.014377614040943136,0.06068369360113605,0.14029388134410797
11306,1724820616137532013,0.4588255286216736,0.0882271975278854,0.1107018962502479,0.0618771240115165,-0.0161956641823053,0.4109123945236206,-0.9094283580780028,0.0,0.0,0.0,-0.44997980523341274,-0.5958825049617074,-0.3214565386573183,1.430574806,0.1107018962502479,0.22779438592863097,0.06237972348195875,0.05888474480349779,26.04952927759208,-3.762783693922814,-0.9324870660587696,-0.12621930757484462,-0.02139619429904577,-0.8474071068102089,0.021525065707901803,0.032512482923371167,-0.003547302955052345,0.2256507025926453,8.876615637929095,30.4317186325422,-0.011772839630014315,0.03607138769745296,0.14029388134410797
11308,1724820616146129998,0.4590281248092651,0.0885088145732879,0.1106786504387855,0.059741485863924,-0.015029327943921,0.4110392928123474,-0.9095338582992554,0.0,0.0,0.0,-0.40499836904432707,-0.344334176990186,-0.07025941282896266,1.439172791,0.1106786504387855,0.5652615497447806,-0.04117141636875462,-0.02550248869481348,2.6961414776609853,-6.829074856963189,-7.577675194671852,-0.12135544496495171,-0.021774551561714962,-0.8475810714313395,0.018652900709376752,0.029483878038405464,-0.004397101078127186,6.183848038368776,25.175962649873465,22.56547909924946,-0.009017597715979443,0.03981520999133487,0.14029388134410797
11310,1724820616157178956,0.4591645002365112,0.0887881517410278,0.1106060221791267,0.0594625100493431,-0.0146170994266867,0.4114206731319427,-0.9093863368034364,0.0,0.0,0.0,-0.3231530489393133,-0.12410627770464777,0.08464008545123669,1.450221749,0.1106060221791267,0.07604315334468115,-0.042585806975226535,-0.07746427672297537,-7.35638467070785,2.3690017042194795,-5.869156025033087,-0.12049773709839869,-0.02234489021553698,-0.8483740507396227,0.013170735603090122,0.025791679551084634,-0.004767633761224133,9.065602269507986,16.91936943715323,10.468664009448872,-0.010949583256952765,0.0265366257929591,0.14029388134410797
11312,1724820616166496414,0.4592937231063843,0.0890324711799621,0.1105757877230644,0.058212973177433,-0.0140037452802062,0.4120389223098755,-0.9091969728469848,0.0,0.0,0.0,-0.22565658312694115,0.009868033116381403,0.15428239741767708,1.459539207,0.1105757877230644,0.29759947144409105,-0.00089294306484684,-0.14131377334615802,-2.2634151693257034,0.6055084712225838,-2.4462314564675753,-0.11769557782901519,-0.02250959664993096,-0.8496808501439307,0.011519220021224186,0.0262858364591958,-0.00305046155116262,2.2647872843389774,2.4834101418323096,3.218438790732616,-0.010608115947693519,0.02851976877436613,0.14029388134410797
11314,1724820616176318015,0.4593825340270996,0.0892913043498992,0.1105478405952453,0.0582663267850875,-0.0138015849515795,0.4125637710094452,-0.908958613872528,0.0,0.0,0.0,-0.2882978024853258,-0.08889462966413486,0.14183066648753928,1.469360808,0.1105478405952453,0.005755324062540118,-0.035003743316927766,-0.11971969293575344,-17.94245645233556,-1.1578825912685704,0.948352909688043,-0.11761340168591154,-0.022989036830434552,-0.8508085051435736,0.008801752409848262,0.025935841655111425,-0.0018458950750490644,1.3580394977216148,-0.9504434583075568,2.054813858121319,-0.013912300805895872,0.025475459258856383,0.14029388134410797
11316,1724820616186514760,0.459469735622406,0.0895513445138931,0.1105396002531051,0.0585655495524406,-0.0137721989303827,0.4131246507167816,-0.9086849689483644,0.0,0.0,0.0,-0.1925558459182784,-0.0021962715427426005,0.1979568916170881,1.479557553,0.1105396002531051,-0.052577711765556416,-0.022301629859950104,-0.12328530077340193,1.2643493539303614,-3.687285404705468,-1.682572490586546,-0.11812119044125498,-0.023362689318326205,-0.8520303817060598,0.005739093797178185,0.02446558995036252,-0.0001965762164584106,12.617198139413409,14.872031725772217,8.95449523382105,-0.013577611906228705,0.02467616281950024,0.14029388134410797
11318,1724820616196386432,0.4594995081424713,0.0897829532623291,0.1105435043573379,0.0586721636354923,-0.0131989791989326,0.4137803018093109,-0.9083883166313172,0.0,0.0,0.0,-0.03715565799622861,0.2054884222604516,0.3193258534910555,1.489429225,0.1105435043573379,0.026659868337069424,-0.10584568418062897,-0.1526334984524651,1.6594075854356412,2.382183043422228,-1.9281578106575763,-0.11782510740430165,-0.02457764848654711,-0.853404191095636,0.004868492411912229,0.025800921902256135,0.002103621541488465,5.125873987180903,-1.6547646250302046,-2.2773774141365637,-0.01568190444089263,0.019611944759828664,0.14029388134410797
11320,1724820616206337004,0.4595665335655212,0.0900631472468376,0.1105815693736076,0.0587214268743991,-0.013314863666892,0.4145157635211944,-0.9080480933189392,0.0,0.0,0.0,-0.09263144564153586,-0.03859271987585555,0.15050550222449596,1.499379797,0.1105815693736076,-0.020693313873675977,0.02663679419449144,-0.1613401849223661,-4.722239972826744,5.459485387759809,-0.6340137416277898,-0.11799112512986201,-0.02450329299641232,-0.8550301720860557,0.0050106709795301185,0.028549956489664297,0.0061468538491586955,-4.173749116660252,-8.742164686378555,-27.268155973598674,-0.01672939908998904,0.025851190841613875,0.14029388134410797
11322,1724820616216793866,0.4595999717712402,0.0903659909963607,0.1106713563203811,0.0590692870318889,-0.0134028112515807,0.4152947962284088,-0.907668113708496,0.0,0.0,0.0,-0.12087605164507233,0.04347575212136845,-0.24784449331497913,1.509836659,0.1106713563203811,-0.06967092873313487,-0.0025873141164531417,-0.1653218729813147,0.352466560057929,-2.5193300584139835,2.1011874806320474,-0.11867745375852042,-0.024734248150046233,-0.8567440341402902,0.0028671030307236833,0.02468640990956006,0.004909418053038461,2.990260707057337,29.89396584605099,-11.603683637230727,-0.019573817591704654,0.024511756163454548,0.14029388134410797
11324,1724820616230096127,0.4596325159072876,0.0906220376491546,0.1106744408607482,0.0590424239635467,-0.0131196277216076,0.4158599078655243,-0.907415211200714,0.0,0.0,0.0,0.015209222482800433,0.814188200198604,0.04607739139379094,1.52313892,0.1106744408607482,0.02024057575341229,-0.03143980138655588,-0.09537180449403596,20.22587799443044,-2.024557018146979,-8.744092292777282,-0.11837792062481174,-0.025299553276345737,-0.8579546970220963,0.0026825730510182666,0.03225264988270027,-0.0005789856715416875,0.6104884720436332,-26.310347439521404,15.23149095841704,-0.012951508777484997,0.016113587617724908,0.14029388134410797
11326,1724820616237184918,0.4596524238586426,0.0908997952938079,0.110667273402214,0.0584290102124214,-0.0126139475032687,0.416536420583725,-0.9071518182754515,0.0,0.0,0.0,-0.016802955427047697,0.30941923822449047,0.12812008855130352,1.530227711,0.110667273402214,0.21448998448057116,-0.04524584467194021,-0.21025343094054863,-0.31365016730449113,3.3041386467983065,-10.382221541979463,-0.11682059947336348,-0.02579295052912748,-0.859397768731632,0.0029002463008609425,0.03895126899092105,0.0014803276481965,-8.965195448537028,-66.76436119461181,-0.45845341649111626,-0.02786212879797758,0.031314098818440474,0.14029388134410797
11328,1724820616246971078,0.4596820473670959,0.091277852654457,0.1107154190540313,0.059048656374216,-0.0131371514871716,0.4175775349140167,-0.9066254496574402,0.0,0.0,0.0,-0.16464755098291425,-0.28393274748748354,-0.03891811115968742,1.540013871,0.1107154190540313,-0.16301987559972858,0.058039336576549916,-0.23317549499449597,-2.4240249718898053,2.6748631584462403,3.239058094559681,-0.11835609816791577,-0.025496595354833753,-0.8617312756039156,0.002093958972867682,0.03339320596350337,0.0005403561358914288,-1.7866429740897818,-4.628522822329598,-11.964551087029054,-0.027215124765867096,0.03152122079454102,0.14029388134410797
11330,1724820616257468951,0.4596935212612152,0.0915694162249565,0.1106717735528945,0.058023203164339,-0.0126032074913382,0.4182401299476623,-0.9063937664031982,0.0,0.0,0.0,-0.03339250593238256,0.29814932357269885,-0.10703951310602518,1.550511744,0.1106717735528945,0.21865172526547094,-0.0026123362893082317,-0.13631873501970918,-10.913939122529245,-8.949683373244344,4.971941367154576,-0.1160244142132227,-0.025691152734001722,-0.863149749861753,-0.0005608144307949203,0.03361094818298138,0.0007751932163087005,20.774130753344053,15.345188827553777,-11.574540527797405,-0.0204945619300456,0.021430244313863967,0.14029388134410797
11332,1724820616267598484,0.459671676158905,0.0919669345021247,0.1107278391718864,0.0599192678928375,-0.0127449361607432,0.418765664100647,-0.9060257077217102,0.0,0.0,0.0,0.25788260731008966,0.0616230682454022,-0.27399021588402,1.560641277,0.1107278391718864,-0.35393347262816455,-0.1242735437274102,-0.1275381080020958,0.018228227259367458,0.941510391441549,4.773823614261518,-0.11957963847849969,-0.02709309884335142,-0.8642851560990825,0.0012462978874197006,0.03934247756905318,-0.0015739304688535682,31.74956879927776,16.625911105888328,17.935023216945943,-0.031088441628512417,0.028725091170844475,0.14029388134410797
11334,1724820616277472840,0.4597167372703552,0.0923563688993454,0.1106438711285591,0.0590496435761451,-0.0123817287385463,0.4189717471599579,-0.9059925675392152,0.0,0.0,0.0,0.6002133233295073,0.6105872308181979,0.23438728867889336,1.570515633,0.1106438711285591,0.19052210884590037,0.009694659236777687,-0.0427925297859964,27.692942072565113,6.44033193946014,3.676197045848878,-0.11768668822920667,-0.027048054182023395,-0.8647162291233481,0.0045577874700288845,0.035097728852349075,-0.004684470533979912,19.26489714884554,38.29985424788484,30.31241642924263,-0.02726861454857695,0.032231623859024665,0.14029388134410797
11336,1724820616290847507,0.4597775936126709,0.0927471444010734,0.1106504052877426,0.0587636940181255,-0.0119690168648958,0.4194636344909668,-0.905789077281952,0.0,0.0,0.0,0.5788235943659226,0.8095210826669241,0.25625459139573803,1.5838903,0.1106504052877426,0.06371107069413726,-0.0332784018319674,-0.08250416608574503,-24.260116512040497,11.954288034132105,-34.11698122746928,-0.11680603477920601,-0.02761916712138238,-0.8657604416806431,0.017383419966684244,0.06211293877620783,0.008403180145824862,-65.26754990008843,-174.49818268355256,-69.61670996050745,-0.019282162996841882,0.025143395364324608,0.14029388134410797
11338,1724820616296542441,0.4599077105522156,0.0931806415319442,0.1107174530625343,0.0589746236801147,-0.0122264008969068,0.4203803539276123,-0.9053468704223632,0.0,0.0,0.0,0.05273979208059909,-0.6434435977349224,-0.3129864286786421,1.589585234,0.1107174530625343,-0.11028556384459068,0.07157973176093409,-0.3523285549384512,-9.21567868637803,8.987009625463592,-25.577087451125976,-0.11737791821002602,-0.027448725437624062,-0.8678016375952864,0.019758013185736445,0.0637881069188091,0.008111060176377194,-78.17117504749018,-181.96630596950803,-71.69606697851032,-0.04296182706900453,0.07344116900472264,0.14029388134410797
11340,1724820616306538528,0.4600510001182556,0.0936019048094749,0.1107342764735221,0.0582185089588165,-0.011780678294599,0.4214094579219818,-0.9049232006072998,0.0,0.0,0.0,-0.4794056670530872,-1.1786346307725286,-0.533831045927133,1.599581321,0.1107342764735221,0.17197041042381486,-0.00396291291264949,-0.22545628273874396,18.434436136989593,0.3239523489739682,9.38725006249742,-0.11559722086520213,-0.027750003790768963,-0.8700363080428171,0.013894593193782612,0.04090541756498034,0.00039084918317122685,-25.605471806013945,9.881082200469429,-0.782893441341729,-0.02291351091148418,0.04144176167688997,0.14029388134410797
11342,1724820616318014766,0.4602046608924866,0.0940550416707992,0.1107217371463775,0.0566579364240169,-0.0116495871916413,0.4222979545593261,-0.9046096801757812,0.0,0.0,0.0,-0.40922069795453786,-0.22962803496848805,-0.2620417347427747,1.611057559,0.1107217371463775,0.2543787824208166,0.10359371742932202,-0.1612704479381187,-27.4743324953206,-7.942181528457594,-1.272823194825916,-0.11262406511412322,-0.02677960334022887,-0.8720111219861225,0.009804789788724122,0.042010980795337716,-0.002593253953200758,9.461457581510054,11.644176167826835,11.374348776004528,-0.02163872999745846,0.03865031159207888,0.14029388134410797
11344,1724820616326195617,0.4602639675140381,0.0944134593009948,0.1106917709112167,0.057413924485445,-0.011667737737298,0.423058420419693,-0.9042063355445862,0.0,0.0,0.0,-0.31230623595793006,-0.5487073724900855,-0.24076937802537537,1.61923841,0.1106917709112167,-0.17248391833435459,-0.062352395341793244,-0.2117224645315834,-22.251218018015216,-8.847269837837755,-1.2790999984609632,-0.11398998754428334,-0.027482262951438317,-0.8736749845501667,0.006148813593085833,0.03823149967895567,-0.0047487422645771105,14.097978713531859,-17.96965950001583,6.710355440491918,-0.029025693532885602,0.03785737485072367,0.14029388134410797
11346,1724820616337534215,0.460316389799118,0.0947592556476593,0.1106208637356758,0.0571494437754154,-0.0115974256768822,0.4238327145576477,-0.9038612842559814,0.0,0.0,0.0,-0.1170724787071942,-0.4219116359332522,-0.1000923685098164,1.630577008,0.1106208637356758,0.0455285133417171,0.01707361245735225,-0.1494099214030725,8.426538887992912,0.4012664839266893,0.7866126898202452,-0.11342687763849575,-0.027482138914707653,-0.8753807003627799,0.0047227796256272825,0.030647164258081006,-0.007121831660268363,6.301067584329816,20.524780252757683,21.066803014456948,-0.020617343318608754,0.025852759373200997,0.14029388134410797
11348,1724820616346930437,0.4603615403175354,0.0950483903288841,0.1105471849441528,0.0570476204156875,-0.0113387554883956,0.4245853424072265,-0.903517723083496,0.0,0.0,0.0,-0.14287586784092116,-0.1563130399061512,0.1652869753588851,1.63997323,0.1105471849441528,0.040603829175129086,-0.030575950561553978,-0.17868577553507978,2.066079255051517,-2.1858171508272837,-0.7759376871162678,-0.11300000448863295,-0.027957275614396464,-0.8770171238002056,0.0036904498712218015,0.028605949176778722,-0.007212021339420893,-11.367143403498035,23.840573335421446,16.059204454065416,-0.02079659906838011,0.02610017935933991,0.14029388134410797
11350,1724820616357755369,0.4603875875473022,0.0953310430049896,0.1104769632220268,0.0566333383321762,-0.0109817860648036,0.4253575801849365,-0.90318500995636,0.0,0.0,0.0,-0.37343585350540265,0.04656396621887948,0.1871816748597012,1.650798162,0.1104769632220268,0.09527097498798533,-0.01825475118432497,-0.15790629419804916,4.468667720309878,4.467589323356,-3.552493839292991,-0.11192151845101034,-0.028345466003562983,-0.878694278267478,0.0017321721086815955,0.027673657138584495,-0.0032418253159809396,-15.274554476267046,1.6026219632398906,-17.337346804922305,-0.018744072436816955,0.02112390445099808,0.14029388134410797
11352,1724820616367116846,0.4603983461856842,0.0956027582287788,0.1104728877544403,0.0559850856661796,-0.0108693456277251,0.4263728559017181,-0.902747929096222,0.0,0.0,0.0,-0.46765529115615845,-0.07718842256331171,-0.13185727145325937,1.660159639,0.1104728877544403,0.13239698720849344,0.05052259376218018,-0.23546420518998035,-9.718214128371653,-2.06098512260339,-0.3900398997905441,-0.110618731444241,-0.028120189051441126,-0.8809383065164881,-0.0033224488797287677,0.02918379346172273,-0.002943404182527587,14.012725957547843,-12.80649615526719,-17.229787040461815,-0.021660169562003617,0.023010198454061437,0.14029388134410797
11354,1724820616376125321,0.4603296518325805,0.0958670377731323,0.110424630343914,0.0563886389136314,-0.01076634041965,0.4270499944686889,-0.9024038314819336,0.0,0.0,0.0,-0.13270093976345357,-0.1889767157579032,-0.1410006969368468,1.669168114,0.110424630343914,-0.07377331123605754,-0.04959820886914687,-0.17053994969873298,-8.485926562779225,-4.236721348208435,5.28563732966183,-0.11124129115327079,-0.028734316151302897,-0.8824161932862603,-0.006908703153104767,0.026420918412701777,-0.005550619081617469,23.60047194814768,10.076241033465893,1.356577012450821,-0.02764303569782621,0.01737100727020659,0.14029388134410797
11356,1724820616387445110,0.4602616429328918,0.0961246415972709,0.1103590428829193,0.0562176257371902,-0.0106390500441193,0.4277571141719818,-0.9020810723304749,0.0,0.0,0.0,-0.05873580049474403,0.2449203156813915,-0.0919112159791049,1.680487903,0.1103590428829193,0.03499984708480993,0.0002671968496002177,-0.13803762037653453,11.731669297103785,6.130336553878345,-4.525592920292095,-0.110800329512788,-0.028904431968266187,-0.8839701532781197,-0.004635812885474877,0.02595621363850764,-0.005035611667847384,-6.498513254436582,20.84222758463789,0.6017006367160098,-0.021565166785488248,0.013337440135935727,0.14029388134410797
11358,1724820616396647382,0.4602292478084564,0.096387431025505,0.1103183776140213,0.0554328598082065,-0.0105544570833444,0.4287579953670501,-0.9016554355621338,0.0,0.0,0.0,-0.21603243789939616,0.30588621279573003,-0.11431453536881836,1.689690175,0.1103183776140213,0.15883639781704612,0.06958608387708358,-0.23501839303405536,6.694265381818919,2.562307170239121,-0.2739822248493482,-0.10927494510749812,-0.028505456747657507,-0.8861911058032709,-0.00711778637974092,0.030349360373431722,-0.0069093299845768286,3.067375334304711,-18.51734725247876,1.9829738413005424,-0.024464433761439277,0.019527001821642537,0.14029388134410797
11360,1724820616406071900,0.46012744307518,0.096690759062767,0.1102292239665985,0.0546816848218441,-0.0103961890563368,0.4293660521507263,-0.9014136791229248,0.0,0.0,0.0,0.007468999924059361,-0.1113089882701308,-0.05298751706749605,1.699114693,0.1102292239665985,0.15665016501164,0.045758730346256694,-0.1385233102789951,-10.122340125902099,0.2609227329943442,0.8364698654572287,-0.10776043256662653,-0.028218128913513503,-0.8875360761260745,-0.008635654973982554,0.03157673565585295,-0.007124751961140596,16.53144847628501,-32.54335874831692,-8.375336220020483,-0.032033951556525726,0.01743850701348792,0.14029388134410797
11362,1724820616416485228,0.4600624442100525,0.0970125794410705,0.1101818978786468,0.054807998239994,-0.0108463978394865,0.4305022358894348,-0.9008587002754213,0.0,0.0,0.0,0.0969645217744764,-0.3153027376883524,-0.31143910795878693,1.709528021,0.1101818978786468,-0.06255448946067957,0.08056747430378099,-0.23799416367943846,2.2596337764272265,-1.8157747392608108,-2.8522632154717096,-0.10834047531952211,-0.027651311394316404,-0.8900915153526268,-0.006618856950559859,0.027638494561476712,-0.008023199513273127,11.715104943990573,-10.79800905441827,-5.595262673970611,-0.02806016711542733,0.019704193517517447,0.14029388134410797
11364,1724820616427227733,0.4599871635437011,0.0972732901573181,0.1100571602582931,0.0537455193698406,-0.0102991918101906,0.4314562678337097,-0.9004727005958557,0.0,0.0,0.0,0.25739885562767834,-0.3338703506191143,-0.1585036941313156,1.720270526,0.1100571602582931,0.22004340577946543,0.003894716188662025,-0.19438462463179448,5.797191933239759,-0.3246304680342105,-1.6690906357243236,-0.10591893110309769,-0.027832993724352346,-0.8921730867279645,-0.0066489655999859565,0.024948301635155268,-0.013864083970117846,10.39337530397315,-8.32159465081348,28.690678316415,-0.02360500030050802,0.013679813104215423,0.14029388134410797
11366,1724820616436537981,0.4599281549453735,0.0975110456347465,0.1099099069833755,0.0531906560063362,-0.010251204483211,0.4325487315654754,-0.8999817967414856,0.0,0.0,0.0,0.3175213615752758,-0.46454640679944414,0.22524384857097213,1.729580774,0.1099099069833755,0.10852801242325535,0.055843612687557345,-0.25614822963261397,-7.138540531871256,3.176529495131382,-8.129947336422966,-0.1048412540071067,-0.027566798046809195,-0.8946000642319114,-0.0021529650367142494,0.02116657048321713,-0.01223152500740099,-21.643387641431122,-9.830056505293303,13.507793859351418,-0.024311187816670514,0.014869866199714378,0.14029388134410797
11368,1724820616446299321,0.4599499702453613,0.0976729318499565,0.1098271980881691,0.0526885204017162,-0.0102470079436898,0.4341095983982086,-0.8992595672607422,0.0,0.0,0.0,-0.1813414149960817,-0.5174589351694384,0.07350627284688516,1.739342114,0.1098271980881691,0.08837168190149813,0.06225550232578081,-0.35081800333172186,1.413440442315844,-1.754436104895021,-0.37320741885969966,-0.10388340164832435,-0.027319143086520795,-0.8980705170663185,-0.0007461535929138563,0.016034740459138774,-0.0095222228753844,-32.829124377188776,0.4747099903422658,-28.8012886807224,-0.011805649187967865,0.013778768443445718,0.14029388134410797
11370,1724820616456172119,0.4599128365516662,0.09782575070858,0.1097227111458778,0.0520485751330852,-0.0099778864532709,0.4352818429470062,-0.8987331390380859,0.0,0.0,0.0,-0.32295273467257013,-0.45390421888598537,-0.34321659395983883,1.749214912,0.1097227111458778,0.1370595048171272,0.02085618556199205,-0.2613852241047704,-1.3796170168527926,-2.4128817413814287,5.212863721391484,-0.10245945478099645,-0.027380105867161393,-0.9006596959237451,-0.005786412326592938,0.011008564636854956,-0.010834037962176524,-6.020425802852297,6.92851779233821,-23.11027614616127,-0.014751665695852772,0.009090041899119189,0.14029388134410797
11372,1724820616467478137,0.4598211944103241,0.0978923365473747,0.1095969751477241,0.0518198832869529,-0.0098903253674507,0.4365700185298919,-0.898122251033783,0.0,0.0,0.0,-0.28325736408796337,-0.36921105575971164,-0.35722241257204657,1.76052093,0.1095969751477241,0.03974946989491819,0.016627327762556807,-0.25223913672645454,13.985190784615675,4.762056294434703,2.5954952407758434,-0.10193166968840944,-0.027484032229505073,-0.9035168339789588,-0.007009235515216261,0.0065912654312425545,-0.017437849142874384,-2.0772216344256016,-5.016915896356274,11.046812475798909,-0.009944323773669092,-0.0011026682159454124,0.14029388134410797
11374,1724820616477240997,0.4597620069980621,0.0979626029729843,0.1093734800815582,0.0499953553080558,-0.0095217013731598,0.4375423491001129,-0.8977563381195068,0.0,0.0,0.0,-0.35064748336366,-0.5236361693160618,-0.14580224824909205,1.77028379,0.1093734800815582,0.3667438559382322,0.10641755724477003,-0.21183858116358287,-17.97067641980575,-4.140749657520271,1.877241406168741,-0.09829265269138109,-0.026656991839261113,-0.9056791567819437,-0.01125079227595549,0.0031678967372901212,-0.019012734465017722,17.247250005706196,-6.955774198225047,16.607584796179047,-0.010011484324021947,0.0005143780060742042,0.14029388134410797
11376,1724820616486691086,0.4596082270145416,0.0979556813836097,0.1092292964458465,0.0512797050178051,-0.0098049817606806,0.4384276270866394,-0.8972489237785339,0.0,0.0,0.0,0.033248348078013246,-0.5083066440111483,-0.035034596309474364,1.779733879,0.1092292964458465,-0.2738427682839027,-0.05471893236095796,-0.2147801310415595,-19.74110377876459,-1.8483217247122914,4.485614760430672,-0.10082732922693156,-0.027373278434075738,-0.9076482862646276,-0.013797795191514695,-0.0033628542007315687,-0.020248688081491828,21.629521112387664,7.655133613792604,4.651591386002634,-0.009854438457068581,-0.011543845859673874,0.14029388134410797
11378,1724820616496632176,0.4594969451427459,0.0978947430849075,0.1089758053421974,0.050954096019268,-0.010086964815855,0.4389862418174743,-0.8969911336898804,0.0,0.0,0.0,0.04963773500204749,-0.36911579999916266,-0.06272526546845303,1.789674969,0.1089758053421974,0.03234674855487163,0.08589363924857983,-0.12002429607260061,7.089218133219847,4.725695127861547,3.135509604115094,-0.10047137090395851,-0.026643610413330715,-0.9089216184733839,-0.010301022944279481,-0.006504623603071913,-0.01959562427946615,21.386639774824147,7.95792920755537,1.3330788571985455,-0.0027229138145878837,-0.013300845509194728,0.14029388134410797
11380,1724820616507716972,0.4593937993049621,0.0978180095553398,0.1088315621018409,0.0518155694007873,-0.0105923786759376,0.4397987425327301,-0.8965377807617188,0.0,0.0,0.0,0.5306674644732542,-0.3556036536995323,0.0029573255276815757,1.800759765,0.1088315621018409,-0.1821428628253133,0.021858766486188654,-0.16432569100681996,16.675595367318,-3.482571557170097,12.420522158844982,-0.10244148243254343,-0.026587041346291973,-0.9107588786734496,-0.0134849239367405,-0.011252234032647301,-0.021878186229442598,42.564015998846536,14.880796513535962,40.86533655218039,-0.00058277963648953,-0.01199500221076696,0.14029388134410797
11382,1724820616516474551,0.4592467844486236,0.0976895093917846,0.108578622341156,0.0509621351957321,-0.0102234510704875,0.4395822286605835,-0.8966971635818481,0.0,0.0,0.0,0.8976725320158735,-0.13075842821725014,0.6025860785244159,1.809517344,0.108578622341156,0.21315366263763647,0.007233670586820908,0.05803725770410868,-2.0936653357615924,6.60575128542451,-2.2734797735000942,-0.100588021550498,-0.02647251063306808,-0.9102594886832724,-0.0031785576460734433,-0.013863483275222244,-0.02040708669068625,-6.450615433374679,27.372126864867674,23.591157931327373,0.000522185596949612,-0.023671701270009234,0.14029388134410797
11384,1724820616526189573,0.4593625664710998,0.097563549876213,0.1084717065095901,0.0520094186067581,-0.0115332240238785,0.440747320652008,-0.8960490226745605,0.0,0.0,0.0,0.3138464011587565,0.1534594700820237,0.34811244496992144,1.819232366,0.1084717065095901,-0.31620481386463917,0.16059754240777763,-0.26219270175960135,-6.565375576531621,3.4895243907908604,-8.638461794981009,-0.10359040358275665,-0.025180016312887195,-0.9129533765027595,0.0025336045506278992,-0.013329584029692754,-0.009869140996484838,-42.89097559267664,16.98951260866027,-21.412003505747222,0.017263773793482422,-0.0036729760712552718,0.14029388134410797
11386,1724820616536785157,0.4592809677124023,0.0974181070923805,0.1083802655339241,0.0510866530239582,-0.0113841779530048,0.4411174654960632,-0.8959218859672546,0.0,0.0,0.0,0.05820271560531895,0.19172793926532683,0.17649835490796606,1.82982795,0.1083802655339241,0.1680306648871964,0.055470502869063874,-0.07263637873458509,0.5134706333765173,-7.771866826856337,14.321380411811182,-0.1017894349524794,-0.02467426506033927,-0.9137794869954655,0.0026912046282951962,-0.01056528980833793,-0.014692735215278141,-23.37992153329097,-0.7284302284322575,26.04788336400781,0.005950708440660446,-0.01610097308629025,0.14029388134410797
11388,1724820616546081910,0.4593907594680786,0.0973456725478172,0.1081942170858383,0.0518988519906997,-0.0117962574586272,0.4409763216972351,-0.895939290523529,0.0,0.0,0.0,-0.15305751678935217,0.14955256544092238,0.7632543489737927,1.839124703,0.1081942170858383,-0.19580168748424975,0.000754499407504654,0.031395223115398656,-3.4989708551779932,-0.7551193853368723,0.7471270545444355,-0.10361688516184767,-0.02463736102793716,-0.9134896884847886,0.003585738063453192,-0.009347016305638611,-0.00789865150501523,-5.065993566853319,-19.34328103824287,7.492830228555275,0.01288647967093081,-0.0002726594513272466,0.14029388134410797
11390,1724820616556128115,0.4593375027179718,0.0972348824143409,0.1082463711500167,0.0510933101177215,-0.0116513762623071,0.4413332641124725,-0.8958117365837097,0.0,0.0,0.0,-0.012253954753129542,-0.2055167426134596,0.23470049730293446,1.849170908,0.1082463711500167,0.15591887141143038,0.04886416245126748,-0.07446867546535871,15.360815720183531,2.107681354212738,-5.067390955462993,-0.1020310783653644,-0.02422584503870183,-0.9142845107517333,-0.0006580840368552998,-0.007643638318278967,0.00012146554820668953,13.914985543497625,-12.393631051209592,-38.30741047206432,0.005624137458610939,-0.011598960239875574,0.14029388134410797
11392,1724820616572248399,0.4594469964504242,0.0971992090344429,0.1081171855330467,0.0518028810620307,-0.0121152680367231,0.4414346516132355,-0.8957148790359497,0.0,0.0,0.0,0.20945706028269973,0.18833819341032232,-0.012803836800414636,1.865291192,0.1081171855330467,-0.10473020446217575,0.0134875020572208,-0.01465684879979541,114.1835259312843,50.881240751991704,-26.536314127629336,-0.10371314983842536,-0.02403383551190436,-0.914541949153564,0.009754345588845581,-0.020658530318044654,-0.010674229081960362,-24.49096924691729,103.3491810785038,35.75578648845268,0.005703337780852374,0.0018554801729897394,0.14029388134410797
11394,1724820616575858646,0.4594846069812774,0.0971097126603126,0.1080764979124069,0.0509468913078308,-0.0121618378907442,0.4416840970516205,-0.8956403732299805,0.0,0.0,0.0,0.09011642046164609,0.6252616994527385,0.1576073295757328,1.868901439,0.1080764979124069,0.4128956798774085,0.24009520693553338,-0.134915110934264,102.76698807685183,44.32792990426168,-22.216234074328874,-0.10220893917714952,-0.023221684294044656,-0.9151156971672286,0.010157639073876013,-0.01917352080540602,-0.010189330708364697,-20.395608630555355,93.71250755112634,33.12515223207588,0.025731987710462336,-0.013985046104125811,0.14029388134410797
11396,1724820616587947370,0.4595968723297119,0.0971052572131156,0.1079970672726631,0.0508029982447624,-0.0123053826391696,0.4414471983909607,-0.8957633376121521,0.0,0.0,0.0,0.35603624638925835,0.6526330523483665,-0.011764225961652719,1.880990163,0.1079970672726631,0.01139219226491807,0.029540756574535414,0.04558803390043025,-12.77741346593529,-11.65521986043954,3.82680142615619,-0.1020829976912341,-0.022810239246229234,-0.9146036971722024,0.010373037517702244,-0.002955352568915437,-0.007341087501148813,28.467150330397,-35.752277301239374,-13.273252584782162,0.005806513618843925,0.0049338430665619,0.14029388134410797
11398,1724820616596089891,0.4596872925758362,0.097067005932331,0.1079330667853355,0.0507920198142528,-0.0121506219729781,0.4413834512233734,-0.895797610282898,0.0,0.0,0.0,0.6233142882405628,0.15301785444896007,-0.11579739914916393,1.889132684,0.1079330667853355,0.019431195623271405,-0.03375927898945072,0.015843923035316274,5.46437887820818,-1.8107124564537005,-1.4910168457612154,-0.10192838843593818,-0.023070564247186454,-0.9144475029344049,0.015127028555337318,-0.0014198868396082531,-0.008793611344101393,30.928037859508912,-28.999499901454477,-8.855196591032357,0.010313943055705875,0.002542003521552674,0.14029388134410797
11400,1724820616606435120,0.4598966538906097,0.0970954000949859,0.1078298240900039,0.0501064360141754,-0.0119703728705644,0.4412649571895599,-0.8958969116210938,0.0,0.0,0.0,0.9183389481206192,0.27833574229775826,-0.15586515254888061,1.899477913,0.1078298240900039,0.13480750208382716,0.025888939577463597,0.028834875147019396,4.516321068427967,-0.031565801203406574,-1.0880775375871183,-0.10053993772804316,-0.022773957093655414,-0.9141775699344051,0.02209410082036456,-0.00030422210734837307,-0.009168889650751133,21.155038684008105,13.673469510552383,11.495430311933152,0.009949970814094721,0.013862037999321784,0.14029388134410797
